------------ Data File Created By ActiGraph GT3X+ ActiLife v6.13.4 Firmware v1.9.2 date format M/d/yyyy at 30 Hz  Filter Normal -----------,,,
Serial Number: MOS2D42160427,,,
Start Time 14:13:00,,,
Start Date 4/20/2023,,,
Epoch Period (hh:mm:ss) 00:00:00,,,
Download Time 14:19:26,,,
Download Date 4/20/2023,,,
Current Memory Address: 0,,,
Current Battery Voltage: 4.17     Mode = 12,,,
--------------------------------------------------,,,
Timestamp,Accelerometer X,Accelerometer Y,Accelerometer Z
13:00.0,0.398,-0.035,-0.918
13:00.0,0.371,-0.07,-0.938
13:00.1,0.363,-0.063,-0.93
13:00.1,0.371,-0.066,-0.926
13:00.1,0.375,-0.07,-0.93
13:00.2,0.371,-0.07,-0.93
13:00.2,0.371,-0.066,-0.934
13:00.2,0.379,-0.063,-0.926
13:00.3,0.379,-0.07,-0.934
13:00.3,0.375,-0.074,-0.934
13:00.3,0.371,-0.063,-0.934
13:00.4,0.375,-0.07,-0.934
13:00.4,0.379,-0.07,-0.934
13:00.4,0.371,-0.066,-0.93
13:00.5,0.371,-0.063,-0.934
13:00.5,0.383,-0.059,-0.93
13:00.5,0.375,-0.066,-0.926
13:00.6,0.379,-0.066,-0.93
13:00.6,0.383,-0.063,-0.93
13:00.6,0.383,-0.063,-0.926
13:00.7,0.375,-0.066,-0.926
13:00.7,0.379,-0.07,-0.93
13:00.7,0.387,-0.063,-0.926
13:00.8,0.379,-0.066,-0.93
13:00.8,0.375,-0.07,-0.93
13:00.8,0.371,-0.066,-0.93
13:00.9,0.391,-0.074,-0.934
13:00.9,0.383,-0.063,-0.926
13:00.9,0.359,-0.063,-0.938
13:01.0,0.367,-0.078,-0.922
13:01.0,0.395,-0.074,-0.922
13:01.0,0.395,-0.063,-0.926
13:01.1,0.359,-0.055,-0.938
13:01.1,0.344,-0.059,-0.934
13:01.1,0.383,-0.082,-0.926
13:01.2,0.402,-0.086,-0.918
13:01.2,0.379,-0.063,-0.93
13:01.2,0.359,-0.055,-0.934
13:01.3,0.363,-0.063,-0.93
13:01.3,0.379,-0.066,-0.93
13:01.3,0.387,-0.078,-0.93
13:01.4,0.383,-0.07,-0.918
13:01.4,0.379,-0.059,-0.93
13:01.4,0.371,-0.066,-0.93
13:01.5,0.371,-0.066,-0.93
13:01.5,0.387,-0.059,-0.926
13:01.5,0.391,-0.074,-0.926
13:01.6,0.383,-0.066,-0.93
13:01.6,0.379,-0.063,-0.93
13:01.6,0.379,-0.063,-0.922
13:01.7,0.383,-0.063,-0.926
13:01.7,0.387,-0.07,-0.926
13:01.7,0.391,-0.063,-0.93
13:01.8,0.387,-0.066,-0.93
13:01.8,0.383,-0.063,-0.922
13:01.8,0.383,-0.063,-0.93
13:01.9,0.387,-0.063,-0.926
13:01.9,0.387,-0.066,-0.922
13:01.9,0.387,-0.066,-0.93
13:02.0,0.387,-0.07,-0.926
13:02.0,0.387,-0.055,-0.93
13:02.0,0.387,-0.063,-0.926
13:02.1,0.387,-0.063,-0.926
13:02.1,0.387,-0.063,-0.922
13:02.1,0.383,-0.066,-0.93
13:02.2,0.379,-0.063,-0.926
13:02.2,0.391,-0.066,-0.922
13:02.2,0.387,-0.066,-0.926
13:02.3,0.383,-0.063,-0.926
13:02.3,0.383,-0.063,-0.926
13:02.3,0.387,-0.066,-0.926
13:02.4,0.387,-0.063,-0.926
13:02.4,0.387,-0.063,-0.926
13:02.4,0.387,-0.074,-0.926
13:02.5,0.391,-0.063,-0.926
13:02.5,0.391,-0.059,-0.93
13:02.5,0.391,-0.063,-0.93
13:02.6,0.387,-0.066,-0.922
13:02.6,0.391,-0.066,-0.926
13:02.6,0.383,-0.059,-0.926
13:02.7,0.383,-0.07,-0.922
13:02.7,0.387,-0.063,-0.922
13:02.7,0.391,-0.063,-0.918
13:02.8,0.387,-0.063,-0.922
13:02.8,0.387,-0.063,-0.926
13:02.8,0.387,-0.063,-0.926
13:02.9,0.398,-0.07,-0.926
13:02.9,0.395,-0.063,-0.93
13:02.9,0.383,-0.066,-0.926
13:03.0,0.383,-0.066,-0.934
13:03.0,0.398,-0.055,-0.926
13:03.0,0.391,-0.059,-0.922
13:03.1,0.387,-0.07,-0.926
13:03.1,0.383,-0.063,-0.93
13:03.1,0.391,-0.066,-0.922
13:03.2,0.387,-0.066,-0.926
13:03.2,0.391,-0.066,-0.926
13:03.2,0.391,-0.063,-0.922
13:03.3,0.391,-0.07,-0.918
13:03.3,0.391,-0.059,-0.926
13:03.3,0.395,-0.063,-0.926
13:03.4,0.387,-0.059,-0.918
13:03.4,0.379,-0.063,-0.926
13:03.4,0.398,-0.063,-0.918
13:03.5,0.391,-0.063,-0.93
13:03.5,0.398,-0.051,-0.93
13:03.5,0.391,-0.063,-0.922
13:03.6,0.387,-0.063,-0.93
13:03.6,0.391,-0.063,-0.926
13:03.6,0.395,-0.066,-0.926
13:03.7,0.391,-0.066,-0.918
13:03.7,0.391,-0.063,-0.93
13:03.7,0.391,-0.066,-0.918
13:03.8,0.391,-0.059,-0.922
13:03.8,0.387,-0.063,-0.922
13:03.8,0.395,-0.066,-0.922
13:03.9,0.398,-0.066,-0.922
13:03.9,0.391,-0.063,-0.922
13:03.9,0.391,-0.059,-0.922
13:04.0,0.387,-0.063,-0.922
13:04.0,0.395,-0.059,-0.922
13:04.0,0.383,-0.063,-0.926
13:04.1,0.395,-0.063,-0.918
13:04.1,0.395,-0.063,-0.922
13:04.1,0.387,-0.066,-0.922
13:04.2,0.387,-0.063,-0.922
13:04.2,0.391,-0.063,-0.922
13:04.2,0.391,-0.066,-0.93
13:04.3,0.391,-0.066,-0.93
13:04.3,0.395,-0.063,-0.926
13:04.3,0.391,-0.063,-0.922
13:04.4,0.383,-0.066,-0.926
13:04.4,0.391,-0.066,-0.926
13:04.4,0.383,-0.066,-0.922
13:04.5,0.391,-0.063,-0.918
13:04.5,0.395,-0.051,-0.922
13:04.5,0.391,-0.066,-0.926
13:04.6,0.375,-0.063,-0.926
13:04.6,0.387,-0.063,-0.922
13:04.6,0.391,-0.059,-0.922
13:04.7,0.391,-0.063,-0.926
13:04.7,0.383,-0.07,-0.926
13:04.7,0.395,-0.066,-0.918
13:04.8,0.398,-0.07,-0.926
13:04.8,0.391,-0.063,-0.93
13:04.8,0.375,-0.059,-0.93
13:04.9,0.391,-0.063,-0.93
13:04.9,0.395,-0.066,-0.922
13:04.9,0.387,-0.066,-0.926
13:05.0,0.379,-0.063,-0.926
13:05.0,0.383,-0.051,-0.934
13:05.0,0.383,-0.063,-0.93
13:05.1,0.391,-0.066,-0.926
13:05.1,0.387,-0.063,-0.922
13:05.1,0.383,-0.066,-0.926
13:05.2,0.379,-0.063,-0.926
13:05.2,0.383,-0.066,-0.926
13:05.2,0.387,-0.066,-0.926
13:05.3,0.391,-0.07,-0.918
13:05.3,0.383,-0.063,-0.93
13:05.3,0.375,-0.063,-0.93
13:05.4,0.387,-0.066,-0.926
13:05.4,0.379,-0.059,-0.922
13:05.4,0.391,-0.07,-0.918
13:05.5,0.383,-0.066,-0.93
13:05.5,0.379,-0.051,-0.926
13:05.5,0.391,-0.074,-0.926
13:05.6,0.383,-0.063,-0.93
13:05.6,0.379,-0.059,-0.926
13:05.6,0.379,-0.063,-0.926
13:05.7,0.398,-0.074,-0.93
13:05.7,0.387,-0.063,-0.918
13:05.7,0.371,-0.059,-0.934
13:05.8,0.375,-0.066,-0.926
13:05.8,0.395,-0.082,-0.918
13:05.8,0.398,-0.07,-0.926
13:05.9,0.363,-0.059,-0.93
13:05.9,0.355,-0.055,-0.926
13:05.9,0.387,-0.063,-0.93
13:06.0,0.395,-0.07,-0.922
13:06.0,0.387,-0.063,-0.93
13:06.0,0.375,-0.063,-0.93
13:06.1,0.379,-0.063,-0.93
13:06.1,0.379,-0.063,-0.926
13:06.1,0.383,-0.066,-0.922
13:06.2,0.383,-0.066,-0.934
13:06.2,0.383,-0.066,-0.926
13:06.2,0.383,-0.063,-0.926
13:06.3,0.387,-0.066,-0.93
13:06.3,0.383,-0.063,-0.922
13:06.3,0.383,-0.063,-0.926
13:06.4,0.383,-0.066,-0.926
13:06.4,0.387,-0.063,-0.93
13:06.4,0.387,-0.059,-0.926
13:06.5,0.383,-0.066,-0.926
13:06.5,0.391,-0.055,-0.926
13:06.5,0.383,-0.063,-0.926
13:06.6,0.383,-0.066,-0.926
13:06.6,0.383,-0.059,-0.922
13:06.6,0.387,-0.063,-0.93
13:06.7,0.391,-0.07,-0.922
13:06.7,0.387,-0.078,-0.93
13:06.7,0.379,-0.063,-0.926
13:06.8,0.383,-0.066,-0.922
13:06.8,0.387,-0.066,-0.926
13:06.8,0.387,-0.07,-0.93
13:06.9,0.383,-0.063,-0.926
13:06.9,0.391,-0.07,-0.922
13:06.9,0.383,-0.063,-0.93
13:07.0,0.387,-0.07,-0.926
13:07.0,0.379,-0.051,-0.926
13:07.0,0.391,-0.066,-0.93
13:07.1,0.387,-0.074,-0.926
13:07.1,0.383,-0.066,-0.93
13:07.1,0.379,-0.066,-0.926
13:07.2,0.383,-0.066,-0.926
13:07.2,0.387,-0.07,-0.93
13:07.2,0.391,-0.078,-0.93
13:07.3,0.375,-0.063,-0.93
13:07.3,0.379,-0.055,-0.926
13:07.3,0.387,-0.066,-0.93
13:07.4,0.383,-0.07,-0.93
13:07.4,0.379,-0.066,-0.922
13:07.4,0.375,-0.066,-0.922
13:07.5,0.387,-0.066,-0.922
13:07.5,0.391,-0.051,-0.93
13:07.5,0.375,-0.066,-0.934
13:07.6,0.375,-0.063,-0.926
13:07.6,0.387,-0.066,-0.93
13:07.6,0.391,-0.066,-0.926
13:07.7,0.375,-0.07,-0.926
13:07.7,0.367,-0.059,-0.934
13:07.7,0.379,-0.063,-0.922
13:07.8,0.387,-0.07,-0.926
13:07.8,0.379,-0.066,-0.926
13:07.8,0.375,-0.063,-0.926
13:07.9,0.387,-0.063,-0.926
13:07.9,0.383,-0.066,-0.926
13:07.9,0.375,-0.07,-0.93
13:08.0,0.367,-0.066,-0.93
13:08.0,0.383,-0.059,-0.926
13:08.0,0.383,-0.063,-0.926
13:08.1,0.379,-0.063,-0.934
13:08.1,0.371,-0.066,-0.93
13:08.1,0.383,-0.066,-0.926
13:08.2,0.387,-0.066,-0.926
13:08.2,0.383,-0.063,-0.926
13:08.2,0.375,-0.07,-0.938
13:08.3,0.375,-0.063,-0.934
13:08.3,0.367,-0.059,-0.934
13:08.3,0.383,-0.074,-0.93
13:08.4,0.387,-0.07,-0.926
13:08.4,0.375,-0.066,-0.93
13:08.4,0.363,-0.063,-0.934
13:08.5,0.371,-0.059,-0.93
13:08.5,0.391,-0.059,-0.93
13:08.5,0.387,-0.063,-0.93
13:08.6,0.379,-0.063,-0.93
13:08.6,0.383,-0.074,-0.93
13:08.6,0.379,-0.066,-0.93
13:08.7,0.367,-0.066,-0.934
13:08.7,0.375,-0.063,-0.926
13:08.7,0.387,-0.074,-0.926
13:08.8,0.387,-0.078,-0.926
13:08.8,0.367,-0.063,-0.926
13:08.8,0.375,-0.059,-0.93
13:08.9,0.383,-0.063,-0.922
13:08.9,0.379,-0.063,-0.926
13:08.9,0.363,-0.07,-0.938
13:09.0,0.367,-0.07,-0.93
13:09.0,0.379,-0.063,-0.938
13:09.0,0.367,-0.059,-0.934
13:09.1,0.375,-0.055,-0.926
13:09.1,0.383,-0.059,-0.926
13:09.1,0.379,-0.066,-0.926
13:09.2,0.383,-0.066,-0.922
13:09.2,0.387,-0.074,-0.93
13:09.2,0.383,-0.066,-0.938
13:09.3,0.379,-0.059,-0.93
13:09.3,0.391,-0.059,-0.926
13:09.3,0.391,-0.066,-0.926
13:09.4,0.383,-0.066,-0.926
13:09.4,0.371,-0.066,-0.926
13:09.4,0.379,-0.074,-0.93
13:09.5,0.391,-0.059,-0.926
13:09.5,0.391,-0.047,-0.922
13:09.5,0.387,-0.063,-0.926
13:09.6,0.387,-0.063,-0.922
13:09.6,0.395,-0.07,-0.922
13:09.6,0.387,-0.07,-0.926
13:09.7,0.383,-0.066,-0.926
13:09.7,0.371,-0.063,-0.926
13:09.7,0.391,-0.066,-0.922
13:09.8,0.414,-0.074,-0.918
13:09.8,0.398,-0.063,-0.922
13:09.8,0.383,-0.063,-0.926
13:09.9,0.383,-0.059,-0.93
13:09.9,0.395,-0.066,-0.918
13:09.9,0.391,-0.063,-0.926
13:10.0,0.371,-0.063,-0.93
13:10.0,0.375,-0.051,-0.922
13:10.0,0.387,-0.063,-0.93
13:10.1,0.387,-0.063,-0.922
13:10.1,0.391,-0.063,-0.922
13:10.1,0.395,-0.066,-0.922
13:10.2,0.387,-0.059,-0.926
13:10.2,0.383,-0.055,-0.926
13:10.2,0.379,-0.063,-0.926
13:10.3,0.387,-0.066,-0.926
13:10.3,0.391,-0.066,-0.922
13:10.3,0.395,-0.059,-0.922
13:10.4,0.398,-0.063,-0.918
13:10.4,0.398,-0.063,-0.922
13:10.4,0.395,-0.063,-0.918
13:10.5,0.395,-0.07,-0.922
13:10.5,0.398,-0.051,-0.918
13:10.5,0.387,-0.055,-0.926
13:10.6,0.359,-0.063,-0.926
13:10.6,0.375,-0.074,-0.926
13:10.6,0.406,-0.074,-0.918
13:10.7,0.406,-0.063,-0.918
13:10.7,0.371,-0.055,-0.93
13:10.7,0.375,-0.063,-0.926
13:10.8,0.406,-0.074,-0.918
13:10.8,0.398,-0.059,-0.918
13:10.8,0.383,-0.063,-0.922
13:10.9,0.379,-0.066,-0.93
13:10.9,0.383,-0.066,-0.926
13:10.9,0.391,-0.063,-0.922
13:11.0,0.391,-0.066,-0.918
13:11.0,0.395,-0.051,-0.922
13:11.0,0.395,-0.066,-0.93
13:11.1,0.391,-0.063,-0.922
13:11.1,0.391,-0.066,-0.922
13:11.1,0.391,-0.063,-0.93
13:11.2,0.398,-0.066,-0.922
13:11.2,0.395,-0.066,-0.918
13:11.2,0.391,-0.063,-0.918
13:11.3,0.383,-0.066,-0.926
13:11.3,0.387,-0.066,-0.922
13:11.3,0.391,-0.074,-0.926
13:11.4,0.395,-0.063,-0.922
13:11.4,0.395,-0.055,-0.922
13:11.4,0.387,-0.066,-0.922
13:11.5,0.383,-0.066,-0.926
13:11.5,0.391,-0.051,-0.926
13:11.5,0.402,-0.07,-0.922
13:11.6,0.402,-0.059,-0.918
13:11.6,0.383,-0.063,-0.926
13:11.6,0.375,-0.066,-0.926
13:11.7,0.391,-0.066,-0.922
13:11.7,0.395,-0.082,-0.922
13:11.7,0.367,-0.066,-0.934
13:11.8,0.363,-0.051,-0.934
13:11.8,0.41,-0.055,-0.922
13:11.8,0.457,-0.063,-0.91
13:11.9,0.395,-0.066,-0.918
13:11.9,0.332,-0.059,-0.938
13:11.9,0.379,-0.055,-0.926
13:12.0,0.426,-0.078,-0.914
13:12.0,0.406,-0.066,-0.926
13:12.0,0.371,-0.07,-0.926
13:12.1,0.352,-0.059,-0.934
13:12.1,0.379,-0.059,-0.922
13:12.1,0.418,-0.074,-0.918
13:12.2,0.387,-0.07,-0.922
13:12.2,0.375,-0.063,-0.926
13:12.2,0.391,-0.059,-0.926
13:12.3,0.398,-0.074,-0.918
13:12.3,0.398,-0.07,-0.922
13:12.3,0.387,-0.063,-0.926
13:12.4,0.391,-0.059,-0.922
13:12.4,0.387,-0.059,-0.922
13:12.4,0.383,-0.063,-0.926
13:12.5,0.387,-0.066,-0.926
13:12.5,0.395,-0.059,-0.926
13:12.5,0.391,-0.059,-0.93
13:12.6,0.387,-0.063,-0.926
13:12.6,0.391,-0.07,-0.926
13:12.6,0.379,-0.055,-0.926
13:12.7,0.379,-0.063,-0.922
13:12.7,0.391,-0.063,-0.918
13:12.7,0.387,-0.066,-0.922
13:12.8,0.375,-0.063,-0.938
13:12.8,0.367,-0.059,-0.926
13:12.8,0.387,-0.063,-0.918
13:12.9,0.391,-0.07,-0.922
13:12.9,0.379,-0.066,-0.922
13:12.9,0.379,-0.063,-0.922
13:13.0,0.383,-0.063,-0.918
13:13.0,0.387,-0.047,-0.93
13:13.0,0.383,-0.063,-0.926
13:13.1,0.379,-0.063,-0.93
13:13.1,0.383,-0.066,-0.922
13:13.1,0.387,-0.066,-0.926
13:13.2,0.387,-0.059,-0.922
13:13.2,0.379,-0.063,-0.926
13:13.2,0.367,-0.059,-0.926
13:13.3,0.387,-0.063,-0.93
13:13.3,0.387,-0.066,-0.93
13:13.3,0.379,-0.063,-0.93
13:13.4,0.375,-0.066,-0.93
13:13.4,0.383,-0.066,-0.93
13:13.4,0.379,-0.066,-0.922
13:13.5,0.375,-0.063,-0.93
13:13.5,0.383,-0.051,-0.926
13:13.5,0.379,-0.063,-0.926
13:13.6,0.379,-0.063,-0.926
13:13.6,0.383,-0.07,-0.926
13:13.6,0.383,-0.063,-0.926
13:13.7,0.379,-0.059,-0.926
13:13.7,0.375,-0.055,-0.93
13:13.7,0.375,-0.059,-0.93
13:13.8,0.391,-0.066,-0.926
13:13.8,0.391,-0.078,-0.926
13:13.8,0.375,-0.066,-0.922
13:13.9,0.375,-0.059,-0.926
13:13.9,0.387,-0.066,-0.93
13:13.9,0.383,-0.063,-0.922
13:14.0,0.367,-0.063,-0.926
13:14.0,0.395,-0.055,-0.93
13:14.0,0.391,-0.066,-0.934
13:14.1,0.379,-0.059,-0.926
13:14.1,0.379,-0.063,-0.93
13:14.1,0.383,-0.07,-0.93
13:14.2,0.391,-0.063,-0.926
13:14.2,0.391,-0.063,-0.926
13:14.2,0.383,-0.063,-0.926
13:14.3,0.375,-0.063,-0.934
13:14.3,0.379,-0.063,-0.926
13:14.3,0.391,-0.07,-0.922
13:14.4,0.387,-0.059,-0.93
13:14.4,0.379,-0.059,-0.926
13:14.4,0.375,-0.066,-0.93
13:14.5,0.383,-0.066,-0.922
13:14.5,0.391,-0.059,-0.922
13:14.5,0.383,-0.066,-0.93
13:14.6,0.379,-0.066,-0.922
13:14.6,0.375,-0.059,-0.93
13:14.6,0.371,-0.066,-0.93
13:14.7,0.387,-0.066,-0.922
13:14.7,0.387,-0.066,-0.926
13:14.7,0.375,-0.066,-0.93
13:14.8,0.371,-0.059,-0.926
13:14.8,0.375,-0.059,-0.926
13:14.8,0.379,-0.063,-0.93
13:14.9,0.379,-0.066,-0.926
13:14.9,0.379,-0.066,-0.934
13:14.9,0.367,-0.066,-0.926
13:15.0,0.383,-0.063,-0.926
13:15.0,0.391,-0.051,-0.926
13:15.0,0.379,-0.059,-0.934
13:15.1,0.375,-0.066,-0.926
13:15.1,0.387,-0.063,-0.922
13:15.1,0.387,-0.059,-0.926
13:15.2,0.371,-0.07,-0.926
13:15.2,0.371,-0.059,-0.93
13:15.2,0.383,-0.059,-0.93
13:15.3,0.383,-0.063,-0.926
13:15.3,0.379,-0.063,-0.93
13:15.3,0.371,-0.063,-0.93
13:15.4,0.379,-0.066,-0.922
13:15.4,0.387,-0.063,-0.918
13:15.4,0.387,-0.063,-0.926
13:15.5,0.375,-0.059,-0.93
13:15.5,0.375,-0.055,-0.934
13:15.5,0.383,-0.066,-0.93
13:15.6,0.391,-0.07,-0.922
13:15.6,0.391,-0.066,-0.922
13:15.6,0.387,-0.066,-0.926
13:15.7,0.387,-0.059,-0.922
13:15.7,0.383,-0.063,-0.93
13:15.7,0.371,-0.066,-0.93
13:15.8,0.379,-0.063,-0.926
13:15.8,0.379,-0.059,-0.926
13:15.8,0.391,-0.07,-0.922
13:15.9,0.387,-0.059,-0.922
13:15.9,0.375,-0.059,-0.926
13:15.9,0.375,-0.063,-0.93
13:16.0,0.383,-0.07,-0.922
13:16.0,0.387,-0.059,-0.926
13:16.0,0.383,-0.066,-0.93
13:16.1,0.375,-0.059,-0.93
13:16.1,0.387,-0.063,-0.926
13:16.1,0.387,-0.063,-0.926
13:16.2,0.371,-0.059,-0.922
13:16.2,0.391,-0.063,-0.926
13:16.2,0.391,-0.07,-0.926
13:16.3,0.379,-0.066,-0.93
13:16.3,0.375,-0.066,-0.922
13:16.3,0.383,-0.07,-0.926
13:16.4,0.383,-0.066,-0.922
13:16.4,0.379,-0.063,-0.922
13:16.4,0.387,-0.066,-0.922
13:16.5,0.375,-0.063,-0.93
13:16.5,0.379,-0.047,-0.93
13:16.5,0.383,-0.063,-0.922
13:16.6,0.387,-0.066,-0.922
13:16.6,0.383,-0.063,-0.926
13:16.6,0.371,-0.059,-0.926
13:16.7,0.363,-0.059,-0.926
13:16.7,0.383,-0.059,-0.93
13:16.7,0.395,-0.066,-0.918
13:16.8,0.379,-0.074,-0.926
13:16.8,0.359,-0.059,-0.934
13:16.8,0.379,-0.066,-0.93
13:16.9,0.391,-0.066,-0.922
13:16.9,0.387,-0.066,-0.922
13:16.9,0.371,-0.066,-0.93
13:17.0,0.371,-0.063,-0.93
13:17.0,0.391,-0.047,-0.926
13:17.0,0.391,-0.066,-0.922
13:17.1,0.375,-0.059,-0.934
13:17.1,0.363,-0.059,-0.934
13:17.1,0.383,-0.066,-0.93
13:17.2,0.379,-0.066,-0.93
13:17.2,0.375,-0.063,-0.934
13:17.2,0.375,-0.066,-0.934
13:17.3,0.383,-0.063,-0.922
13:17.3,0.387,-0.07,-0.93
13:17.3,0.383,-0.066,-0.93
13:17.4,0.375,-0.063,-0.934
13:17.4,0.371,-0.059,-0.93
13:17.4,0.379,-0.063,-0.926
13:17.5,0.383,-0.066,-0.926
13:17.5,0.371,-0.059,-0.938
13:17.5,0.363,-0.063,-0.93
13:17.6,0.379,-0.059,-0.93
13:17.6,0.375,-0.055,-0.934
13:17.6,0.379,-0.063,-0.926
13:17.7,0.391,-0.066,-0.93
13:17.7,0.383,-0.063,-0.926
13:17.7,0.375,-0.059,-0.93
13:17.8,0.375,-0.063,-0.926
13:17.8,0.391,-0.066,-0.922
13:17.8,0.387,-0.066,-0.926
13:17.9,0.363,-0.063,-0.934
13:17.9,0.367,-0.066,-0.934
13:17.9,0.383,-0.063,-0.926
13:18.0,0.395,-0.07,-0.922
13:18.0,0.375,-0.055,-0.926
13:18.0,0.359,-0.059,-0.93
13:18.1,0.383,-0.063,-0.926
13:18.1,0.391,-0.066,-0.926
13:18.1,0.379,-0.066,-0.93
13:18.2,0.375,-0.059,-0.93
13:18.2,0.371,-0.063,-0.926
13:18.2,0.375,-0.059,-0.922
13:18.3,0.375,-0.063,-0.926
13:18.3,0.371,-0.063,-0.934
13:18.3,0.379,-0.066,-0.922
13:18.4,0.379,-0.066,-0.93
13:18.4,0.359,-0.059,-0.926
13:18.4,0.379,-0.059,-0.926
13:18.5,0.379,-0.063,-0.93
13:18.5,0.371,-0.051,-0.926
13:18.5,0.375,-0.066,-0.926
13:18.6,0.387,-0.063,-0.93
13:18.6,0.371,-0.059,-0.926
13:18.6,0.367,-0.059,-0.926
13:18.7,0.379,-0.07,-0.926
13:18.7,0.391,-0.07,-0.926
13:18.7,0.383,-0.066,-0.93
13:18.8,0.367,-0.059,-0.93
13:18.8,0.375,-0.059,-0.93
13:18.8,0.375,-0.063,-0.93
13:18.9,0.379,-0.063,-0.926
13:18.9,0.379,-0.07,-0.926
13:18.9,0.375,-0.063,-0.934
13:19.0,0.371,-0.059,-0.926
13:19.0,0.387,-0.055,-0.926
13:19.0,0.371,-0.063,-0.926
13:19.1,0.379,-0.066,-0.926
13:19.1,0.379,-0.066,-0.93
13:19.1,0.379,-0.063,-0.926
13:19.2,0.375,-0.059,-0.926
13:19.2,0.375,-0.063,-0.93
13:19.2,0.363,-0.063,-0.93
13:19.3,0.387,-0.07,-0.922
13:19.3,0.395,-0.07,-0.926
13:19.3,0.375,-0.063,-0.93
13:19.4,0.355,-0.055,-0.934
13:19.4,0.371,-0.059,-0.926
13:19.4,0.398,-0.07,-0.922
13:19.5,0.387,-0.063,-0.922
13:19.5,0.367,-0.055,-0.934
13:19.5,0.363,-0.059,-0.934
13:19.6,0.383,-0.055,-0.93
13:19.6,0.387,-0.066,-0.93
13:19.6,0.371,-0.063,-0.93
13:19.7,0.367,-0.059,-0.926
13:19.7,0.375,-0.066,-0.922
13:19.7,0.383,-0.059,-0.926
13:19.8,0.375,-0.059,-0.934
13:19.8,0.379,-0.07,-0.93
13:19.8,0.379,-0.066,-0.926
13:19.9,0.375,-0.066,-0.93
13:19.9,0.375,-0.066,-0.926
13:19.9,0.371,-0.055,-0.93
13:20.0,0.383,-0.066,-0.926
13:20.0,0.379,-0.059,-0.93
13:20.0,0.371,-0.059,-0.934
13:20.1,0.371,-0.063,-0.93
13:20.1,0.379,-0.055,-0.93
13:20.1,0.367,-0.055,-0.926
13:20.2,0.363,-0.063,-0.93
13:20.2,0.387,-0.066,-0.934
13:20.2,0.383,-0.063,-0.926
13:20.3,0.379,-0.063,-0.922
13:20.3,0.371,-0.07,-0.934
13:20.3,0.383,-0.066,-0.93
13:20.4,0.383,-0.063,-0.93
13:20.4,0.371,-0.063,-0.934
13:20.4,0.371,-0.063,-0.926
13:20.5,0.379,-0.066,-0.922
13:20.5,0.387,-0.063,-0.93
13:20.5,0.371,-0.059,-0.93
13:20.6,0.367,-0.055,-0.926
13:20.6,0.379,-0.066,-0.922
13:20.6,0.375,-0.074,-0.926
13:20.7,0.375,-0.066,-0.93
13:20.7,0.371,-0.059,-0.93
13:20.7,0.363,-0.059,-0.926
13:20.8,0.379,-0.063,-0.93
13:20.8,0.367,-0.059,-0.93
13:20.8,0.371,-0.063,-0.934
13:20.9,0.375,-0.066,-0.93
13:20.9,0.391,-0.07,-0.926
13:20.9,0.375,-0.063,-0.926
13:21.0,0.352,-0.055,-0.934
13:21.0,0.383,-0.055,-0.93
13:21.0,0.391,-0.07,-0.926
13:21.1,0.375,-0.063,-0.93
13:21.1,0.359,-0.055,-0.93
13:21.1,0.379,-0.059,-0.926
13:21.2,0.391,-0.059,-0.926
13:21.2,0.371,-0.066,-0.926
13:21.2,0.367,-0.066,-0.934
13:21.3,0.383,-0.059,-0.926
13:21.3,0.379,-0.066,-0.93
13:21.3,0.371,-0.066,-0.926
13:21.4,0.371,-0.063,-0.93
13:21.4,0.375,-0.063,-0.93
13:21.4,0.375,-0.063,-0.922
13:21.5,0.379,-0.063,-0.926
13:21.5,0.379,-0.051,-0.93
13:21.5,0.383,-0.063,-0.93
13:21.6,0.367,-0.059,-0.93
13:21.6,0.367,-0.059,-0.934
13:21.6,0.391,-0.066,-0.926
13:21.7,0.387,-0.059,-0.93
13:21.7,0.363,-0.059,-0.934
13:21.7,0.367,-0.066,-0.93
13:21.8,0.383,-0.066,-0.93
13:21.8,0.379,-0.059,-0.926
13:21.8,0.375,-0.07,-0.926
13:21.9,0.383,-0.063,-0.926
13:21.9,0.375,-0.059,-0.93
13:21.9,0.371,-0.066,-0.922
13:22.0,0.387,-0.066,-0.93
13:22.0,0.387,-0.066,-0.93
13:22.0,0.387,-0.066,-0.93
13:22.1,0.387,-0.066,-0.93
13:22.1,0.387,-0.066,-0.93
13:22.1,0.387,-0.066,-0.93
13:22.2,0.387,-0.066,-0.93
13:22.2,0.387,-0.066,-0.93
13:22.2,0.387,-0.066,-0.93
13:22.3,0.387,-0.066,-0.93
13:22.3,0.387,-0.066,-0.93
13:22.3,0.387,-0.066,-0.93
13:22.4,0.387,-0.066,-0.93
13:22.4,0.387,-0.066,-0.93
13:22.4,0.387,-0.066,-0.93
13:22.5,0.387,-0.066,-0.93
13:22.5,0.387,-0.066,-0.93
13:22.5,0.387,-0.066,-0.93
13:22.6,0.387,-0.066,-0.93
13:22.6,0.387,-0.066,-0.93
13:22.6,0.387,-0.066,-0.93
13:22.7,0.387,-0.066,-0.93
13:22.7,0.387,-0.066,-0.93
13:22.7,0.387,-0.066,-0.93
13:22.8,0.387,-0.066,-0.93
13:22.8,0.387,-0.066,-0.93
13:22.8,0.387,-0.066,-0.93
13:22.9,0.387,-0.066,-0.93
13:22.9,0.387,-0.066,-0.93
13:22.9,0.387,-0.066,-0.93
13:23.0,0.387,-0.066,-0.93
13:23.0,0.387,-0.066,-0.93
13:23.0,0.387,-0.066,-0.93
13:23.1,0.387,-0.066,-0.93
13:23.1,0.387,-0.066,-0.93
13:23.1,0.387,-0.066,-0.93
13:23.2,0.387,-0.066,-0.93
13:23.2,0.387,-0.066,-0.93
13:23.2,0.387,-0.066,-0.93
13:23.3,0.387,-0.066,-0.93
13:23.3,0.387,-0.066,-0.93
13:23.3,0.387,-0.066,-0.93
13:23.4,0.387,-0.066,-0.93
13:23.4,0.387,-0.066,-0.93
13:23.4,0.387,-0.066,-0.93
13:23.5,0.387,-0.066,-0.93
13:23.5,0.387,-0.066,-0.93
13:23.5,0.387,-0.066,-0.93
13:23.6,0.387,-0.066,-0.93
13:23.6,0.387,-0.066,-0.93
13:23.6,0.387,-0.066,-0.93
13:23.7,0.387,-0.066,-0.93
13:23.7,0.387,-0.066,-0.93
13:23.7,0.387,-0.066,-0.93
13:23.8,0.387,-0.066,-0.93
13:23.8,0.387,-0.066,-0.93
13:23.8,0.387,-0.066,-0.93
13:23.9,0.387,-0.066,-0.93
13:23.9,0.387,-0.066,-0.93
13:23.9,0.387,-0.066,-0.93
13:24.0,0.387,-0.066,-0.93
13:24.0,0.387,-0.066,-0.93
13:24.0,0.387,-0.066,-0.93
13:24.1,0.387,-0.066,-0.93
13:24.1,0.387,-0.066,-0.93
13:24.1,0.387,-0.066,-0.93
13:24.2,0.387,-0.066,-0.93
13:24.2,0.387,-0.066,-0.93
13:24.2,0.387,-0.066,-0.93
13:24.3,0.387,-0.066,-0.93
13:24.3,0.387,-0.066,-0.93
13:24.3,0.387,-0.066,-0.93
13:24.4,0.387,-0.066,-0.93
13:24.4,0.387,-0.066,-0.93
13:24.4,0.387,-0.066,-0.93
13:24.5,0.387,-0.066,-0.93
13:24.5,0.387,-0.066,-0.93
13:24.5,0.387,-0.066,-0.93
13:24.6,0.387,-0.066,-0.93
13:24.6,0.387,-0.066,-0.93
13:24.6,0.387,-0.066,-0.93
13:24.7,0.387,-0.066,-0.93
13:24.7,0.387,-0.066,-0.93
13:24.7,0.387,-0.066,-0.93
13:24.8,0.387,-0.066,-0.93
13:24.8,0.387,-0.066,-0.93
13:24.8,0.387,-0.066,-0.93
13:24.9,0.387,-0.066,-0.93
13:24.9,0.387,-0.066,-0.93
13:24.9,0.387,-0.066,-0.93
13:25.0,0.387,-0.066,-0.93
13:25.0,0.387,-0.066,-0.93
13:25.0,0.387,-0.066,-0.93
13:25.1,0.387,-0.066,-0.93
13:25.1,0.387,-0.066,-0.93
13:25.1,0.387,-0.066,-0.93
13:25.2,0.387,-0.066,-0.93
13:25.2,0.387,-0.066,-0.93
13:25.2,0.387,-0.066,-0.93
13:25.3,0.387,-0.066,-0.93
13:25.3,0.387,-0.066,-0.93
13:25.3,0.387,-0.066,-0.93
13:25.4,0.387,-0.066,-0.93
13:25.4,0.387,-0.066,-0.93
13:25.4,0.387,-0.066,-0.93
13:25.5,0.387,-0.066,-0.93
13:25.5,0.387,-0.066,-0.93
13:25.5,0.387,-0.066,-0.93
13:25.6,0.387,-0.066,-0.93
13:25.6,0.387,-0.066,-0.93
13:25.6,0.387,-0.066,-0.93
13:25.7,0.387,-0.066,-0.93
13:25.7,0.387,-0.066,-0.93
13:25.7,0.387,-0.066,-0.93
13:25.8,0.387,-0.066,-0.93
13:25.8,0.387,-0.066,-0.93
13:25.8,0.387,-0.066,-0.93
13:25.9,0.387,-0.066,-0.93
13:25.9,0.387,-0.066,-0.93
13:25.9,0.387,-0.066,-0.93
13:26.0,0.387,-0.066,-0.93
13:26.0,0.387,-0.066,-0.93
13:26.0,0.387,-0.066,-0.93
13:26.1,0.387,-0.066,-0.93
13:26.1,0.387,-0.066,-0.93
13:26.1,0.387,-0.066,-0.93
13:26.2,0.387,-0.066,-0.93
13:26.2,0.387,-0.066,-0.93
13:26.2,0.387,-0.066,-0.93
13:26.3,0.387,-0.066,-0.93
13:26.3,0.387,-0.066,-0.93
13:26.3,0.387,-0.066,-0.93
13:26.4,0.387,-0.066,-0.93
13:26.4,0.387,-0.066,-0.93
13:26.4,0.387,-0.066,-0.93
13:26.5,0.387,-0.066,-0.93
13:26.5,0.387,-0.066,-0.93
13:26.5,0.387,-0.066,-0.93
13:26.6,0.387,-0.066,-0.93
13:26.6,0.387,-0.066,-0.93
13:26.6,0.387,-0.066,-0.93
13:26.7,0.387,-0.066,-0.93
13:26.7,0.387,-0.066,-0.93
13:26.7,0.387,-0.066,-0.93
13:26.8,0.387,-0.066,-0.93
13:26.8,0.387,-0.066,-0.93
13:26.8,0.387,-0.066,-0.93
13:26.9,0.387,-0.066,-0.93
13:26.9,0.387,-0.066,-0.93
13:26.9,0.387,-0.066,-0.93
13:27.0,0.387,-0.066,-0.93
13:27.0,0.387,-0.066,-0.93
13:27.0,0.387,-0.066,-0.93
13:27.1,0.387,-0.066,-0.93
13:27.1,0.387,-0.066,-0.93
13:27.1,0.387,-0.066,-0.93
13:27.2,0.387,-0.066,-0.93
13:27.2,0.387,-0.066,-0.93
13:27.2,0.387,-0.066,-0.93
13:27.3,0.387,-0.066,-0.93
13:27.3,0.387,-0.066,-0.93
13:27.3,0.387,-0.066,-0.93
13:27.4,0.387,-0.066,-0.93
13:27.4,0.387,-0.066,-0.93
13:27.4,0.387,-0.066,-0.93
13:27.5,0.387,-0.066,-0.93
13:27.5,0.387,-0.066,-0.93
13:27.5,0.387,-0.066,-0.93
13:27.6,0.387,-0.066,-0.93
13:27.6,0.387,-0.066,-0.93
13:27.6,0.387,-0.066,-0.93
13:27.7,0.387,-0.066,-0.93
13:27.7,0.387,-0.066,-0.93
13:27.7,0.387,-0.066,-0.93
13:27.8,0.387,-0.066,-0.93
13:27.8,0.387,-0.066,-0.93
13:27.8,0.387,-0.066,-0.93
13:27.9,0.387,-0.066,-0.93
13:27.9,0.387,-0.066,-0.93
13:27.9,0.387,-0.066,-0.93
13:28.0,0.387,-0.066,-0.93
13:28.0,0.496,0.023,-0.492
13:28.0,0.746,0.008,-0.25
13:28.1,1.473,-0.184,0.168
13:28.1,1.863,-0.086,0.258
13:28.1,1.41,-0.195,0.164
13:28.2,-0.098,-0.012,-0.707
13:28.2,0.5,0,-0.859
13:28.2,-0.238,0.078,-0.816
13:28.3,-0.848,0.141,-1.121
13:28.3,-0.422,0.098,-1.039
13:28.3,0.168,0,-0.922
13:28.4,0.898,-0.172,-0.723
13:28.4,1.125,-0.152,-0.668
13:28.4,0.691,-0.141,-0.816
13:28.5,0.352,-0.008,-0.906
13:28.5,0.012,-0.004,-1.004
13:28.5,0.023,-0.027,-1.016
13:28.6,0.273,-0.043,-0.949
13:28.6,0.523,-0.059,-0.875
13:28.6,0.602,-0.086,-0.855
13:28.7,0.508,-0.059,-0.887
13:28.7,0.363,-0.051,-0.926
13:28.7,0.301,-0.051,-0.941
13:28.8,0.375,-0.055,-0.926
13:28.8,0.434,-0.055,-0.914
13:28.8,0.438,-0.07,-0.914
13:28.9,0.402,-0.059,-0.918
13:28.9,0.379,-0.051,-0.922
13:28.9,0.395,-0.055,-0.918
13:29.0,0.418,-0.059,-0.918
13:29.0,0.406,-0.047,-0.918
13:29.0,0.391,-0.051,-0.918
13:29.1,0.391,-0.055,-0.922
13:29.1,0.406,-0.063,-0.914
13:29.1,0.402,-0.051,-0.918
13:29.2,0.395,-0.055,-0.922
13:29.2,0.391,-0.055,-0.918
13:29.2,0.398,-0.063,-0.918
13:29.3,0.414,-0.063,-0.918
13:29.3,0.395,-0.055,-0.918
13:29.3,0.395,-0.059,-0.918
13:29.4,0.398,-0.059,-0.922
13:29.4,0.402,-0.059,-0.918
13:29.4,0.402,-0.063,-0.918
13:29.5,0.383,-0.055,-0.922
13:29.5,0.395,-0.043,-0.93
13:29.5,0.398,-0.055,-0.918
13:29.6,0.398,-0.059,-0.922
13:29.6,0.395,-0.059,-0.922
13:29.6,0.398,-0.055,-0.918
13:29.7,0.402,-0.055,-0.918
13:29.7,0.398,-0.055,-0.918
13:29.7,0.395,-0.055,-0.918
13:29.8,0.391,-0.059,-0.918
13:29.8,0.395,-0.059,-0.922
13:29.8,0.398,-0.055,-0.918
13:29.9,0.391,-0.063,-0.922
13:29.9,0.387,-0.055,-0.918
13:29.9,0.402,-0.055,-0.918
13:30.0,0.406,-0.059,-0.918
13:30.0,0.398,-0.047,-0.922
13:30.0,0.395,-0.051,-0.926
13:30.1,0.395,-0.059,-0.922
13:30.1,0.395,-0.055,-0.918
13:30.1,0.395,-0.055,-0.922
13:30.2,0.391,-0.055,-0.918
13:30.2,0.391,-0.059,-0.922
13:30.2,0.395,-0.066,-0.918
13:30.3,0.395,-0.055,-0.918
13:30.3,0.391,-0.059,-0.926
13:30.3,0.391,-0.059,-0.93
13:30.4,0.398,-0.063,-0.918
13:30.4,0.402,-0.063,-0.918
13:30.4,0.395,-0.055,-0.922
13:30.5,0.383,-0.059,-0.922
13:30.5,0.391,-0.043,-0.922
13:30.5,0.402,-0.055,-0.918
13:30.6,0.398,-0.059,-0.922
13:30.6,0.391,-0.055,-0.922
13:30.6,0.395,-0.055,-0.918
13:30.7,0.398,-0.063,-0.918
13:30.7,0.391,-0.055,-0.922
13:30.7,0.383,-0.055,-0.922
13:30.8,0.398,-0.063,-0.922
13:30.8,0.402,-0.066,-0.918
13:30.8,0.395,-0.059,-0.918
13:30.9,0.383,-0.059,-0.922
13:30.9,0.391,-0.059,-0.922
13:30.9,0.387,-0.059,-0.922
13:31.0,0.395,-0.059,-0.918
13:31.0,0.402,-0.043,-0.922
13:31.0,0.395,-0.055,-0.922
13:31.1,0.387,-0.055,-0.922
13:31.1,0.391,-0.059,-0.918
13:31.1,0.402,-0.055,-0.918
13:31.2,0.398,-0.059,-0.918
13:31.2,0.395,-0.059,-0.922
13:31.2,0.391,-0.055,-0.926
13:31.3,0.395,-0.059,-0.922
13:31.3,0.395,-0.059,-0.922
13:31.3,0.395,-0.055,-0.918
13:31.4,0.402,-0.059,-0.922
13:31.4,0.398,-0.063,-0.934
13:31.4,0.371,-0.063,-0.93
13:31.5,0.379,-0.051,-0.922
13:31.5,0.418,-0.043,-0.918
13:31.5,0.418,-0.059,-0.918
13:31.6,0.395,-0.063,-0.918
13:31.6,0.383,-0.055,-0.918
13:31.6,0.391,-0.055,-0.918
13:31.7,0.398,-0.051,-0.922
13:31.7,0.41,-0.063,-0.918
13:31.7,0.398,-0.066,-0.918
13:31.8,0.371,-0.055,-0.922
13:31.8,0.387,-0.055,-0.918
13:31.8,0.41,-0.059,-0.918
13:31.9,0.398,-0.059,-0.918
13:31.9,0.387,-0.059,-0.93
13:31.9,0.391,-0.063,-0.922
13:32.0,0.402,-0.063,-0.918
13:32.0,0.395,-0.047,-0.926
13:32.0,0.387,-0.063,-0.93
13:32.1,0.391,-0.059,-0.922
13:32.1,0.41,-0.055,-0.914
13:32.1,0.402,-0.055,-0.914
13:32.2,0.391,-0.059,-0.918
13:32.2,0.383,-0.059,-0.922
13:32.2,0.387,-0.059,-0.922
13:32.3,0.391,-0.055,-0.918
13:32.3,0.395,-0.055,-0.922
13:32.3,0.391,-0.055,-0.926
13:32.4,0.398,-0.063,-0.918
13:32.4,0.398,-0.066,-0.918
13:32.4,0.387,-0.055,-0.922
13:32.5,0.383,-0.051,-0.918
13:32.5,0.387,-0.051,-0.922
13:32.5,0.395,-0.055,-0.922
13:32.6,0.395,-0.051,-0.918
13:32.6,0.395,-0.055,-0.918
13:32.6,0.391,-0.051,-0.922
13:32.7,0.387,-0.055,-0.926
13:32.7,0.383,-0.055,-0.926
13:32.7,0.355,-0.059,-0.934
13:32.8,0.367,-0.063,-0.926
13:32.8,0.395,-0.059,-0.922
13:32.8,0.398,-0.059,-0.922
13:32.9,0.383,-0.051,-0.926
13:32.9,0.383,-0.051,-0.918
13:32.9,0.406,-0.063,-0.922
13:33.0,0.391,-0.063,-0.922
13:33.0,0.387,-0.051,-0.922
13:33.0,0.367,-0.051,-0.93
13:33.1,0.359,-0.051,-0.93
13:33.1,0.383,-0.059,-0.926
13:33.1,0.398,-0.059,-0.918
13:33.2,0.395,-0.059,-0.922
13:33.2,0.371,-0.055,-0.926
13:33.2,0.379,-0.051,-0.922
13:33.3,0.395,-0.055,-0.918
13:33.3,0.391,-0.063,-0.922
13:33.3,0.371,-0.055,-0.93
13:33.4,0.387,-0.055,-0.918
13:33.4,0.398,-0.051,-0.918
13:33.4,0.387,-0.063,-0.918
13:33.5,0.375,-0.059,-0.926
13:33.5,0.379,-0.055,-0.934
13:33.5,0.391,-0.055,-0.926
13:33.6,0.395,-0.059,-0.922
13:33.6,0.383,-0.055,-0.922
13:33.6,0.375,-0.059,-0.93
13:33.7,0.387,-0.063,-0.918
13:33.7,0.391,-0.055,-0.922
13:33.7,0.387,-0.051,-0.918
13:33.8,0.391,-0.063,-0.926
13:33.8,0.391,-0.063,-0.926
13:33.8,0.383,-0.055,-0.93
13:33.9,0.391,-0.055,-0.922
13:33.9,0.398,-0.055,-0.922
13:33.9,0.391,-0.063,-0.926
13:34.0,0.379,-0.066,-0.922
13:34.0,0.387,-0.039,-0.926
13:34.0,0.391,-0.059,-0.926
13:34.1,0.395,-0.059,-0.918
13:34.1,0.383,-0.059,-0.922
13:34.1,0.391,-0.063,-0.918
13:34.2,0.387,-0.055,-0.926
13:34.2,0.391,-0.055,-0.922
13:34.2,0.402,-0.063,-0.918
13:34.3,0.387,-0.055,-0.922
13:34.3,0.383,-0.059,-0.926
13:34.3,0.391,-0.059,-0.922
13:34.4,0.387,-0.055,-0.922
13:34.4,0.379,-0.055,-0.93
13:34.4,0.391,-0.055,-0.922
13:34.5,0.391,-0.055,-0.922
13:34.5,0.391,-0.051,-0.93
13:34.5,0.395,-0.055,-0.922
13:34.6,0.387,-0.059,-0.918
13:34.6,0.379,-0.059,-0.926
13:34.6,0.383,-0.055,-0.926
13:34.7,0.391,-0.059,-0.926
13:34.7,0.395,-0.063,-0.926
13:34.7,0.387,-0.063,-0.918
13:34.8,0.383,-0.055,-0.922
13:34.8,0.391,-0.059,-0.926
13:34.8,0.395,-0.066,-0.926
13:34.9,0.387,-0.059,-0.926
13:34.9,0.383,-0.063,-0.93
13:34.9,0.391,-0.063,-0.926
13:35.0,0.391,-0.059,-0.922
13:35.0,0.387,-0.047,-0.922
13:35.0,0.387,-0.059,-0.93
13:35.1,0.383,-0.063,-0.922
13:35.1,0.387,-0.059,-0.922
13:35.1,0.391,-0.059,-0.922
13:35.2,0.391,-0.063,-0.922
13:35.2,0.375,-0.055,-0.93
13:35.2,0.379,-0.055,-0.93
13:35.3,0.391,-0.063,-0.926
13:35.3,0.383,-0.063,-0.93
13:35.3,0.383,-0.059,-0.93
13:35.4,0.371,-0.055,-0.93
13:35.4,0.383,-0.059,-0.922
13:35.4,0.395,-0.063,-0.922
13:35.5,0.379,-0.059,-0.926
13:35.5,0.375,-0.047,-0.934
13:35.5,0.379,-0.059,-0.93
13:35.6,0.383,-0.059,-0.918
13:35.6,0.379,-0.055,-0.922
13:35.6,0.375,-0.063,-0.93
13:35.7,0.387,-0.059,-0.93
13:35.7,0.383,-0.055,-0.926
13:35.7,0.367,-0.055,-0.93
13:35.8,0.375,-0.059,-0.93
13:35.8,0.379,-0.063,-0.93
13:35.8,0.367,-0.059,-0.93
13:35.9,0.383,-0.063,-0.93
13:35.9,0.383,-0.063,-0.93
13:35.9,0.371,-0.059,-0.93
13:36.0,0.359,-0.059,-0.926
13:36.0,0.387,-0.055,-0.93
13:36.0,0.383,-0.055,-0.93
13:36.1,0.371,-0.055,-0.934
13:36.1,0.359,-0.059,-0.934
13:36.1,0.367,-0.059,-0.93
13:36.2,0.379,-0.059,-0.926
13:36.2,0.383,-0.055,-0.93
13:36.2,0.375,-0.055,-0.93
13:36.3,0.367,-0.059,-0.93
13:36.3,0.355,-0.055,-0.941
13:36.3,0.367,-0.055,-0.934
13:36.4,0.387,-0.059,-0.922
13:36.4,0.375,-0.059,-0.934
13:36.4,0.363,-0.055,-0.934
13:36.5,0.367,-0.063,-0.93
13:36.5,0.363,-0.043,-0.93
13:36.5,0.367,-0.055,-0.934
13:36.6,0.375,-0.063,-0.941
13:36.6,0.336,-0.055,-0.941
13:36.6,0.371,-0.051,-0.93
13:36.7,0.426,-0.063,-0.918
13:36.7,0.391,-0.051,-0.922
13:36.7,0.352,-0.055,-0.934
13:36.8,0.359,-0.055,-0.934
13:36.8,0.375,-0.059,-0.93
13:36.8,0.395,-0.059,-0.922
13:36.9,0.383,-0.059,-0.918
13:36.9,0.371,-0.051,-0.922
13:36.9,0.375,-0.059,-0.949
13:37.0,0.387,-0.059,-0.938
13:37.0,0.379,-0.051,-0.922
13:37.0,0.383,-0.063,-0.926
13:37.1,0.379,-0.055,-0.93
13:37.1,0.371,-0.047,-0.934
13:37.1,0.383,-0.063,-0.926
13:37.2,0.391,-0.059,-0.926
13:37.2,0.367,-0.055,-0.93
13:37.2,0.363,-0.059,-0.934
13:37.3,0.379,-0.055,-0.93
13:37.3,0.395,-0.055,-0.918
13:37.3,0.383,-0.055,-0.93
13:37.4,0.359,-0.055,-0.934
13:37.4,0.375,-0.063,-0.926
13:37.4,0.395,-0.066,-0.926
13:37.5,0.383,-0.055,-0.926
13:37.5,0.379,-0.035,-0.926
13:37.5,0.363,-0.051,-0.93
13:37.6,0.383,-0.07,-0.922
13:37.6,0.391,-0.074,-0.922
13:37.6,0.375,-0.059,-0.926
13:37.7,0.367,-0.055,-0.934
13:37.7,0.367,-0.055,-0.926
13:37.7,0.391,-0.059,-0.918
13:37.8,0.391,-0.055,-0.922
13:37.8,0.367,-0.059,-0.934
13:37.8,0.379,-0.059,-0.926
13:37.9,0.383,-0.063,-0.93
13:37.9,0.375,-0.055,-0.934
13:37.9,0.379,-0.059,-0.93
13:38.0,0.379,-0.059,-0.926
13:38.0,0.395,-0.051,-0.926
13:38.0,0.371,-0.055,-0.93
13:38.1,0.363,-0.055,-0.934
13:38.1,0.387,-0.059,-0.922
13:38.1,0.387,-0.063,-0.926
13:38.2,0.359,-0.066,-0.934
13:38.2,0.371,-0.063,-0.93
13:38.2,0.414,-0.051,-0.918
13:38.3,0.41,-0.055,-0.922
13:38.3,0.371,-0.063,-0.93
13:38.3,0.371,-0.063,-0.93
13:38.4,0.367,-0.07,-0.93
13:38.4,0.363,-0.063,-0.934
13:38.4,0.348,-0.047,-0.934
13:38.5,0.391,-0.055,-0.922
13:38.5,0.414,-0.066,-0.918
13:38.5,0.406,-0.059,-0.922
13:38.6,0.379,-0.051,-0.93
13:38.6,0.398,-0.051,-0.918
13:38.6,0.426,-0.063,-0.914
13:38.7,0.406,-0.074,-0.918
13:38.7,0.379,-0.063,-0.926
13:38.7,0.371,-0.055,-0.93
13:38.8,0.383,-0.059,-0.926
13:38.8,0.391,-0.055,-0.918
13:38.8,0.395,-0.055,-0.918
13:38.9,0.391,-0.063,-0.922
13:38.9,0.375,-0.066,-0.926
13:38.9,0.379,-0.059,-0.926
13:39.0,0.402,-0.051,-0.918
13:39.0,0.434,-0.047,-0.914
13:39.0,0.418,-0.063,-0.914
13:39.1,0.383,-0.059,-0.922
13:39.1,0.363,-0.063,-0.926
13:39.1,0.383,-0.055,-0.922
13:39.2,0.41,-0.055,-0.918
13:39.2,0.402,-0.063,-0.926
13:39.2,0.387,-0.055,-0.922
13:39.3,0.395,-0.059,-0.918
13:39.3,0.406,-0.063,-0.914
13:39.3,0.41,-0.063,-0.918
13:39.4,0.406,-0.055,-0.918
13:39.4,0.402,-0.055,-0.918
13:39.4,0.395,-0.059,-0.922
13:39.5,0.391,-0.059,-0.922
13:39.5,0.375,-0.035,-0.926
13:39.5,0.398,-0.055,-0.922
13:39.6,0.43,-0.07,-0.914
13:39.6,0.406,-0.063,-0.918
13:39.6,0.383,-0.055,-0.926
13:39.7,0.402,-0.055,-0.918
13:39.7,0.43,-0.059,-0.91
13:39.7,0.418,-0.063,-0.914
13:39.8,0.383,-0.055,-0.922
13:39.8,0.383,-0.059,-0.922
13:39.8,0.402,-0.055,-0.918
13:39.9,0.418,-0.055,-0.918
13:39.9,0.418,-0.059,-0.914
13:39.9,0.395,-0.063,-0.918
13:40.0,0.383,-0.059,-0.918
13:40.0,0.402,-0.047,-0.918
13:40.0,0.422,-0.055,-0.914
13:40.1,0.418,-0.055,-0.914
13:40.1,0.395,-0.059,-0.918
13:40.1,0.367,-0.066,-0.934
13:40.2,0.324,-0.059,-0.938
13:40.2,0.352,-0.059,-0.934
13:40.2,0.414,-0.059,-0.914
13:40.3,0.449,-0.066,-0.906
13:40.3,0.402,-0.059,-0.914
13:40.3,0.359,-0.055,-0.934
13:40.4,0.367,-0.059,-0.926
13:40.4,0.41,-0.059,-0.918
13:40.4,0.414,-0.059,-0.918
13:40.5,0.387,-0.063,-0.918
13:40.5,0.387,-0.047,-0.922
13:40.5,0.395,-0.055,-0.922
13:40.6,0.398,-0.059,-0.922
13:40.6,0.398,-0.055,-0.918
13:40.6,0.391,-0.055,-0.922
13:40.7,0.395,-0.059,-0.922
13:40.7,0.395,-0.063,-0.918
13:40.7,0.395,-0.055,-0.922
13:40.8,0.398,-0.055,-0.918
13:40.8,0.402,-0.055,-0.918
13:40.8,0.387,-0.055,-0.922
13:40.9,0.391,-0.055,-0.922
13:40.9,0.406,-0.059,-0.918
13:40.9,0.395,-0.055,-0.918
13:41.0,0.395,-0.055,-0.922
13:41.0,0.398,-0.047,-0.922
13:41.0,0.398,-0.055,-0.922
13:41.1,0.395,-0.059,-0.922
13:41.1,0.395,-0.055,-0.926
13:41.1,0.395,-0.059,-0.918
13:41.2,0.395,-0.055,-0.922
13:41.2,0.402,-0.059,-0.918
13:41.2,0.406,-0.059,-0.918
13:41.3,0.391,-0.063,-0.926
13:41.3,0.355,-0.082,-0.93
13:41.3,0.324,-0.059,-0.938
13:41.4,0.359,-0.055,-0.934
13:41.4,0.406,-0.059,-0.918
13:41.4,0.434,-0.066,-0.914
13:41.5,0.398,-0.055,-0.918
13:41.5,0.379,-0.043,-0.926
13:41.5,0.395,-0.055,-0.922
13:41.6,0.406,-0.055,-0.926
13:41.6,0.398,-0.059,-0.934
13:41.6,0.379,-0.059,-0.926
13:41.7,0.383,-0.055,-0.926
13:41.7,0.395,-0.055,-0.922
13:41.7,0.387,-0.063,-0.922
13:41.8,0.379,-0.055,-0.926
13:41.8,0.391,-0.059,-0.926
13:41.8,0.402,-0.063,-0.922
13:41.9,0.395,-0.055,-0.922
13:41.9,0.391,-0.055,-0.922
13:41.9,0.391,-0.055,-0.922
13:42.0,0.379,-0.055,-0.926
13:42.0,0.387,-0.047,-0.922
13:42.0,0.395,-0.059,-0.922
13:42.1,0.395,-0.059,-0.922
13:42.1,0.387,-0.055,-0.926
13:42.1,0.391,-0.055,-0.922
13:42.2,0.391,-0.059,-0.918
13:42.2,0.383,-0.059,-0.922
13:42.2,0.391,-0.063,-0.918
13:42.3,0.391,-0.055,-0.922
13:42.3,0.387,-0.063,-0.926
13:42.3,0.379,-0.059,-0.922
13:42.4,0.387,-0.059,-0.93
13:42.4,0.387,-0.055,-0.922
13:42.4,0.391,-0.063,-0.926
13:42.5,0.387,-0.059,-0.922
13:42.5,0.387,-0.051,-0.926
13:42.5,0.391,-0.055,-0.926
13:42.6,0.395,-0.055,-0.926
13:42.6,0.391,-0.055,-0.918
13:42.6,0.383,-0.059,-0.922
13:42.7,0.387,-0.055,-0.922
13:42.7,0.395,-0.059,-0.922
13:42.7,0.395,-0.066,-0.918
13:42.8,0.387,-0.059,-0.922
13:42.8,0.391,-0.059,-0.922
13:42.8,0.391,-0.059,-0.926
13:42.9,0.383,-0.059,-0.922
13:42.9,0.391,-0.063,-0.918
13:42.9,0.395,-0.055,-0.918
13:43.0,0.391,-0.063,-0.922
13:43.0,0.391,-0.047,-0.926
13:43.0,0.387,-0.055,-0.922
13:43.1,0.395,-0.059,-0.922
13:43.1,0.391,-0.059,-0.926
13:43.1,0.387,-0.059,-0.926
13:43.2,0.391,-0.059,-0.926
13:43.2,0.395,-0.059,-0.918
13:43.2,0.395,-0.059,-0.918
13:43.3,0.395,-0.063,-0.918
13:43.3,0.383,-0.055,-0.93
13:43.3,0.387,-0.059,-0.922
13:43.4,0.395,-0.063,-0.922
13:43.4,0.398,-0.059,-0.922
13:43.4,0.391,-0.055,-0.926
13:43.5,0.391,-0.059,-0.926
13:43.5,0.395,-0.043,-0.922
13:43.5,0.395,-0.055,-0.922
13:43.6,0.395,-0.059,-0.918
13:43.6,0.395,-0.059,-0.922
13:43.6,0.391,-0.059,-0.926
13:43.7,0.387,-0.055,-0.926
13:43.7,0.391,-0.055,-0.922
13:43.7,0.391,-0.059,-0.918
13:43.8,0.391,-0.063,-0.926
13:43.8,0.387,-0.055,-0.922
13:43.8,0.387,-0.055,-0.918
13:43.9,0.391,-0.055,-0.922
13:43.9,0.387,-0.055,-0.926
13:43.9,0.387,-0.059,-0.93
13:44.0,0.379,-0.063,-0.922
13:44.0,0.387,-0.047,-0.926
13:44.0,0.391,-0.055,-0.926
13:44.1,0.387,-0.059,-0.926
13:44.1,0.387,-0.07,-0.922
13:44.1,0.383,-0.063,-0.922
13:44.2,0.379,-0.055,-0.926
13:44.2,0.391,-0.059,-0.926
13:44.2,0.391,-0.059,-0.922
13:44.3,0.383,-0.059,-0.926
13:44.3,0.387,-0.059,-0.926
13:44.3,0.379,-0.055,-0.93
13:44.4,0.391,-0.059,-0.922
13:44.4,0.391,-0.059,-0.922
13:44.4,0.379,-0.059,-0.926
13:44.5,0.359,-0.066,-0.93
13:44.5,0.375,-0.047,-0.938
13:44.5,0.426,-0.051,-0.918
13:44.6,0.461,-0.063,-0.902
13:44.6,0.406,-0.063,-0.918
13:44.6,0.359,-0.051,-0.938
13:44.7,0.375,-0.047,-0.922
13:44.7,0.402,-0.059,-0.922
13:44.7,0.395,-0.063,-0.926
13:44.8,0.359,-0.059,-0.93
13:44.8,0.344,-0.059,-0.934
13:44.8,0.32,-0.055,-0.941
13:44.9,0.355,-0.055,-0.941
13:44.9,0.395,-0.055,-0.918
13:44.9,0.441,-0.066,-0.91
13:45.0,0.398,-0.059,-0.922
13:45.0,0.355,-0.047,-0.941
13:45.0,0.355,-0.055,-0.938
13:45.1,0.387,-0.066,-0.93
13:45.1,0.375,-0.059,-0.926
13:45.1,0.371,-0.055,-0.93
13:45.2,0.379,-0.055,-0.926
13:45.2,0.379,-0.055,-0.922
13:45.2,0.391,-0.059,-0.922
13:45.3,0.391,-0.059,-0.926
13:45.3,0.375,-0.059,-0.93
13:45.3,0.359,-0.055,-0.93
13:45.4,0.387,-0.055,-0.926
13:45.4,0.395,-0.055,-0.922
13:45.4,0.387,-0.059,-0.922
13:45.5,0.375,-0.063,-0.922
13:45.5,0.387,-0.047,-0.926
13:45.5,0.379,-0.055,-0.926
13:45.6,0.379,-0.059,-0.922
13:45.6,0.391,-0.059,-0.926
13:45.6,0.379,-0.059,-0.93
13:45.7,0.367,-0.055,-0.926
13:45.7,0.375,-0.059,-0.926
13:45.7,0.387,-0.055,-0.926
13:45.8,0.383,-0.055,-0.926
13:45.8,0.387,-0.059,-0.918
13:45.8,0.395,-0.055,-0.922
13:45.9,0.395,-0.063,-0.93
13:45.9,0.383,-0.055,-0.922
13:45.9,0.387,-0.055,-0.918
13:46.0,0.391,-0.055,-0.922
13:46.0,0.371,-0.047,-0.93
13:46.0,0.363,-0.055,-0.93
13:46.1,0.387,-0.063,-0.918
13:46.1,0.406,-0.063,-0.922
13:46.1,0.379,-0.055,-0.926
13:46.2,0.375,-0.055,-0.93
13:46.2,0.391,-0.055,-0.922
13:46.2,0.387,-0.059,-0.922
13:46.3,0.352,-0.051,-0.938
13:46.3,0.344,-0.055,-0.938
13:46.3,0.398,-0.066,-0.922
13:46.4,0.434,-0.07,-0.914
13:46.4,0.391,-0.055,-0.918
13:46.4,0.348,-0.051,-0.93
13:46.5,0.383,-0.055,-0.926
13:46.5,0.426,-0.051,-0.918
13:46.5,0.379,-0.063,-0.926
13:46.6,0.348,-0.055,-0.938
13:46.6,0.383,-0.066,-0.926
13:46.6,0.395,-0.063,-0.918
13:46.7,0.379,-0.059,-0.93
13:46.7,0.375,-0.066,-0.926
13:46.7,0.391,-0.059,-0.926
13:46.8,0.387,-0.051,-0.934
13:46.8,0.379,-0.055,-0.926
13:46.8,0.395,-0.059,-0.922
13:46.9,0.398,-0.059,-0.922
13:46.9,0.367,-0.055,-0.93
13:46.9,0.367,-0.059,-0.93
13:47.0,0.387,-0.055,-0.93
13:47.0,0.391,-0.047,-0.926
13:47.0,0.391,-0.055,-0.922
13:47.1,0.379,-0.055,-0.926
13:47.1,0.387,-0.059,-0.93
13:47.1,0.387,-0.059,-0.93
13:47.2,0.383,-0.055,-0.926
13:47.2,0.383,-0.063,-0.926
13:47.2,0.383,-0.059,-0.922
13:47.3,0.383,-0.059,-0.926
13:47.3,0.383,-0.059,-0.93
13:47.3,0.379,-0.055,-0.926
13:47.4,0.391,-0.066,-0.922
13:47.4,0.395,-0.063,-0.918
13:47.4,0.387,-0.059,-0.926
13:47.5,0.371,-0.055,-0.926
13:47.5,0.391,-0.047,-0.926
13:47.5,0.395,-0.059,-0.926
13:47.6,0.391,-0.063,-0.922
13:47.6,0.383,-0.063,-0.922
13:47.6,0.387,-0.059,-0.93
13:47.7,0.383,-0.055,-0.926
13:47.7,0.391,-0.055,-0.922
13:47.7,0.391,-0.063,-0.922
13:47.8,0.379,-0.059,-0.922
13:47.8,0.383,-0.059,-0.922
13:47.8,0.391,-0.059,-0.926
13:47.9,0.391,-0.063,-0.922
13:47.9,0.395,-0.055,-0.922
13:47.9,0.387,-0.059,-0.926
13:48.0,0.387,-0.059,-0.922
13:48.0,0.395,-0.051,-0.922
13:48.0,0.398,-0.059,-0.922
13:48.1,0.387,-0.055,-0.922
13:48.1,0.375,-0.055,-0.93
13:48.1,0.387,-0.059,-0.926
13:48.2,0.395,-0.066,-0.922
13:48.2,0.379,-0.059,-0.922
13:48.2,0.367,-0.055,-0.926
13:48.3,0.391,-0.063,-0.922
13:48.3,0.391,-0.055,-0.922
13:48.3,0.371,-0.059,-0.93
13:48.4,0.383,-0.063,-0.922
13:48.4,0.395,-0.063,-0.93
13:48.4,0.395,-0.063,-0.926
13:48.5,0.379,-0.063,-0.926
13:48.5,0.375,-0.051,-0.922
13:48.5,0.383,-0.059,-0.926
13:48.6,0.391,-0.055,-0.922
13:48.6,0.391,-0.059,-0.918
13:48.6,0.391,-0.063,-0.926
13:48.7,0.379,-0.063,-0.93
13:48.7,0.371,-0.059,-0.926
13:48.7,0.387,-0.055,-0.926
13:48.8,0.391,-0.059,-0.922
13:48.8,0.383,-0.063,-0.926
13:48.8,0.375,-0.059,-0.93
13:48.9,0.379,-0.059,-0.922
13:48.9,0.391,-0.059,-0.922
13:48.9,0.387,-0.059,-0.926
13:49.0,0.387,-0.055,-0.926
13:49.0,0.383,-0.047,-0.934
13:49.0,0.383,-0.059,-0.93
13:49.1,0.383,-0.055,-0.922
13:49.1,0.387,-0.059,-0.922
13:49.1,0.379,-0.059,-0.922
13:49.2,0.383,-0.063,-0.926
13:49.2,0.387,-0.059,-0.926
13:49.2,0.383,-0.055,-0.926
13:49.3,0.383,-0.059,-0.926
13:49.3,0.375,-0.059,-0.93
13:49.3,0.383,-0.059,-0.93
13:49.4,0.387,-0.055,-0.922
13:49.4,0.387,-0.059,-0.926
13:49.4,0.387,-0.055,-0.93
13:49.5,0.383,-0.059,-0.926
13:49.5,0.387,-0.055,-0.934
13:49.5,0.383,-0.063,-0.93
13:49.6,0.387,-0.059,-0.922
13:49.6,0.383,-0.059,-0.93
13:49.6,0.383,-0.055,-0.93
13:49.7,0.387,-0.059,-0.922
13:49.7,0.391,-0.063,-0.926
13:49.7,0.383,-0.059,-0.926
13:49.8,0.387,-0.059,-0.918
13:49.8,0.383,-0.063,-0.922
13:49.8,0.383,-0.063,-0.93
13:49.9,0.375,-0.059,-0.926
13:49.9,0.387,-0.059,-0.918
13:49.9,0.395,-0.063,-0.926
13:50.0,0.379,-0.055,-0.926
13:50.0,0.387,-0.047,-0.93
13:50.0,0.387,-0.059,-0.93
13:50.1,0.395,-0.063,-0.918
13:50.1,0.387,-0.063,-0.926
13:50.1,0.379,-0.063,-0.922
13:50.2,0.383,-0.055,-0.922
13:50.2,0.383,-0.059,-0.926
13:50.2,0.391,-0.059,-0.922
13:50.3,0.391,-0.063,-0.918
13:50.3,0.383,-0.059,-0.922
13:50.3,0.375,-0.055,-0.922
13:50.4,0.391,-0.059,-0.93
13:50.4,0.387,-0.059,-0.922
13:50.4,0.395,-0.063,-0.922
13:50.5,0.387,-0.059,-0.926
13:50.5,0.387,-0.047,-0.926
13:50.5,0.371,-0.055,-0.934
13:50.6,0.387,-0.055,-0.922
13:50.6,0.402,-0.063,-0.918
13:50.6,0.387,-0.066,-0.93
13:50.7,0.367,-0.059,-0.922
13:50.7,0.383,-0.059,-0.926
13:50.7,0.398,-0.059,-0.922
13:50.8,0.398,-0.059,-0.922
13:50.8,0.391,-0.063,-0.93
13:50.8,0.367,-0.059,-0.926
13:50.9,0.383,-0.063,-0.922
13:50.9,0.395,-0.059,-0.922
13:50.9,0.383,-0.059,-0.926
13:51.0,0.375,-0.059,-0.918
13:51.0,0.391,-0.047,-0.93
13:51.0,0.383,-0.059,-0.926
13:51.1,0.391,-0.059,-0.918
13:51.1,0.391,-0.055,-0.926
13:51.1,0.383,-0.059,-0.926
13:51.2,0.387,-0.059,-0.926
13:51.2,0.391,-0.066,-0.922
13:51.2,0.375,-0.059,-0.926
13:51.3,0.383,-0.059,-0.918
13:51.3,0.387,-0.059,-0.926
13:51.3,0.387,-0.055,-0.922
13:51.4,0.379,-0.059,-0.93
13:51.4,0.379,-0.055,-0.926
13:51.4,0.391,-0.063,-0.918
13:51.5,0.387,-0.059,-0.922
13:51.5,0.387,-0.047,-0.926
13:51.5,0.379,-0.059,-0.93
13:51.6,0.383,-0.055,-0.93
13:51.6,0.391,-0.059,-0.918
13:51.6,0.395,-0.055,-0.918
13:51.7,0.379,-0.055,-0.926
13:51.7,0.391,-0.066,-0.922
13:51.7,0.391,-0.059,-0.926
13:51.8,0.383,-0.02,-0.922
13:51.8,0.395,-0.094,-0.922
13:51.8,0.406,-0.07,-0.922
13:51.9,0.34,-0.039,-0.926
13:51.9,0.41,-0.082,-0.922
13:51.9,0.387,-0.047,-0.926
13:52.0,0.383,-0.063,-0.926
13:52.0,0.387,-0.051,-0.93
13:52.0,0.379,-0.055,-0.922
13:52.1,0.387,-0.063,-0.93
13:52.1,0.387,-0.055,-0.922
13:52.1,0.387,-0.055,-0.922
13:52.2,0.387,-0.059,-0.922
13:52.2,0.379,-0.059,-0.922
13:52.2,0.383,-0.063,-0.926
13:52.3,0.391,-0.059,-0.922
13:52.3,0.387,-0.063,-0.926
13:52.3,0.387,-0.059,-0.93
13:52.4,0.375,-0.055,-0.922
13:52.4,0.379,-0.055,-0.922
13:52.4,0.391,-0.059,-0.926
13:52.5,0.387,-0.055,-0.918
13:52.5,0.395,-0.047,-0.93
13:52.5,0.383,-0.055,-0.93
13:52.6,0.383,-0.055,-0.918
13:52.6,0.391,-0.055,-0.922
13:52.6,0.395,-0.063,-0.922
13:52.7,0.375,-0.059,-0.93
13:52.7,0.387,-0.055,-0.93
13:52.7,0.398,-0.059,-0.918
13:52.8,0.391,-0.055,-0.922
13:52.8,0.367,-0.059,-0.926
13:52.8,0.387,-0.059,-0.922
13:52.9,0.395,-0.059,-0.922
13:52.9,0.395,-0.063,-0.926
13:52.9,0.387,-0.059,-0.93
13:53.0,0.379,-0.055,-0.922
13:53.0,0.395,-0.047,-0.918
13:53.0,0.387,-0.055,-0.922
13:53.1,0.383,-0.059,-0.93
13:53.1,0.383,-0.066,-0.93
13:53.1,0.387,-0.055,-0.922
13:53.2,0.387,-0.055,-0.922
13:53.2,0.391,-0.063,-0.918
13:53.2,0.395,-0.059,-0.918
13:53.3,0.391,-0.059,-0.922
13:53.3,0.395,-0.055,-0.918
13:53.3,0.395,-0.059,-0.922
13:53.4,0.391,-0.059,-0.93
13:53.4,0.395,-0.059,-0.922
13:53.4,0.391,-0.063,-0.922
13:53.5,0.379,-0.059,-0.922
13:53.5,0.383,-0.047,-0.926
13:53.5,0.395,-0.059,-0.922
13:53.6,0.398,-0.059,-0.926
13:53.6,0.383,-0.059,-0.926
13:53.6,0.387,-0.059,-0.922
13:53.7,0.387,-0.055,-0.922
13:53.7,0.387,-0.055,-0.918
13:53.7,0.391,-0.063,-0.926
13:53.8,0.387,-0.059,-0.926
13:53.8,0.371,-0.055,-0.926
13:53.8,0.383,-0.063,-0.918
13:53.9,0.391,-0.059,-0.918
13:53.9,0.391,-0.059,-0.918
13:53.9,0.375,-0.063,-0.926
13:54.0,0.379,-0.059,-0.926
13:54.0,0.395,-0.051,-0.922
13:54.0,0.387,-0.055,-0.922
13:54.1,0.383,-0.055,-0.926
13:54.1,0.387,-0.055,-0.918
13:54.1,0.387,-0.059,-0.926
13:54.2,0.375,-0.055,-0.922
13:54.2,0.383,-0.066,-0.926
13:54.2,0.387,-0.063,-0.93
13:54.3,0.387,-0.063,-0.922
13:54.3,0.391,-0.059,-0.922
13:54.3,0.391,-0.055,-0.926
13:54.4,0.375,-0.059,-0.926
13:54.4,0.379,-0.055,-0.922
13:54.4,0.383,-0.059,-0.922
13:54.5,0.387,-0.055,-0.926
13:54.5,0.387,-0.051,-0.93
13:54.5,0.383,-0.059,-0.922
13:54.6,0.391,-0.059,-0.902
13:54.6,0.395,-0.059,-0.934
13:54.6,0.391,-0.063,-0.938
13:54.7,0.383,-0.066,-0.938
13:54.7,0.395,-0.063,-0.934
13:54.7,0.371,-0.066,-0.926
13:54.8,0.371,-0.059,-0.93
13:54.8,0.391,-0.055,-0.926
13:54.8,0.391,-0.055,-0.93
13:54.9,0.379,-0.059,-0.922
13:54.9,0.387,-0.066,-0.93
13:54.9,0.391,-0.059,-0.922
13:55.0,0.387,-0.055,-0.922
13:55.0,0.387,-0.047,-0.926
13:55.0,0.383,-0.059,-0.926
13:55.1,0.383,-0.063,-0.926
13:55.1,0.383,-0.066,-0.922
13:55.1,0.391,-0.059,-0.922
13:55.2,0.383,-0.059,-0.922
13:55.2,0.383,-0.055,-0.922
13:55.2,0.383,-0.059,-0.926
13:55.3,0.395,-0.063,-0.922
13:55.3,0.391,-0.059,-0.922
13:55.3,0.387,-0.059,-0.926
13:55.4,0.379,-0.055,-0.922
13:55.4,0.391,-0.063,-0.926
13:55.4,0.391,-0.059,-0.926
13:55.5,0.387,-0.063,-0.922
13:55.5,0.383,-0.047,-0.926
13:55.5,0.391,-0.055,-0.926
13:55.6,0.395,-0.059,-0.922
13:55.6,0.387,-0.059,-0.926
13:55.6,0.383,-0.059,-0.93
13:55.7,0.398,-0.063,-0.922
13:55.7,0.398,-0.063,-0.918
13:55.7,0.391,-0.055,-0.922
13:55.8,0.379,-0.059,-0.922
13:55.8,0.387,-0.066,-0.922
13:55.8,0.395,-0.059,-0.922
13:55.9,0.391,-0.059,-0.926
13:55.9,0.387,-0.063,-0.922
13:55.9,0.391,-0.063,-0.918
13:56.0,0.379,-0.055,-0.926
13:56.0,0.383,-0.059,-0.93
13:56.0,0.383,-0.055,-0.922
13:56.1,0.387,-0.055,-0.926
13:56.1,0.387,-0.059,-0.918
13:56.1,0.387,-0.066,-0.922
13:56.2,0.395,-0.063,-0.918
13:56.2,0.387,-0.055,-0.922
13:56.2,0.387,-0.063,-0.93
13:56.3,0.383,-0.059,-0.926
13:56.3,0.379,-0.059,-0.93
13:56.3,0.383,-0.063,-0.926
13:56.4,0.398,-0.063,-0.922
13:56.4,0.391,-0.059,-0.926
13:56.4,0.375,-0.055,-0.93
13:56.5,0.383,-0.059,-0.926
13:56.5,0.395,-0.047,-0.922
13:56.5,0.395,-0.063,-0.922
13:56.6,0.387,-0.059,-0.926
13:56.6,0.375,-0.059,-0.93
13:56.6,0.375,-0.055,-0.922
13:56.7,0.395,-0.059,-0.922
13:56.7,0.395,-0.063,-0.926
13:56.7,0.383,-0.063,-0.926
13:56.8,0.375,-0.063,-0.926
13:56.8,0.383,-0.055,-0.922
13:56.8,0.387,-0.059,-0.922
13:56.9,0.391,-0.055,-0.922
13:56.9,0.387,-0.059,-0.93
13:56.9,0.387,-0.055,-0.93
13:57.0,0.379,-0.059,-0.926
13:57.0,0.387,-0.047,-0.934
13:57.0,0.391,-0.055,-0.93
13:57.1,0.395,-0.066,-0.922
13:57.1,0.387,-0.063,-0.926
13:57.1,0.375,-0.059,-0.922
13:57.2,0.387,-0.059,-0.926
13:57.2,0.391,-0.063,-0.926
13:57.2,0.387,-0.063,-0.922
13:57.3,0.383,-0.055,-0.926
13:57.3,0.379,-0.059,-0.922
13:57.3,0.391,-0.059,-0.922
13:57.4,0.391,-0.055,-0.922
13:57.4,0.391,-0.059,-0.922
13:57.4,0.395,-0.063,-0.922
13:57.5,0.383,-0.059,-0.926
13:57.5,0.387,-0.047,-0.926
13:57.5,0.391,-0.063,-0.926
13:57.6,0.387,-0.055,-0.93
13:57.6,0.387,-0.059,-0.922
13:57.6,0.391,-0.059,-0.922
13:57.7,0.387,-0.066,-0.926
13:57.7,0.387,-0.059,-0.926
13:57.7,0.387,-0.055,-0.922
13:57.8,0.391,-0.063,-0.922
13:57.8,0.395,-0.063,-0.922
13:57.8,0.375,-0.055,-0.926
13:57.9,0.383,-0.066,-0.926
13:57.9,0.395,-0.063,-0.926
13:57.9,0.395,-0.055,-0.922
13:58.0,0.449,-0.063,-0.93
13:58.0,0.219,-0.09,-0.98
13:58.0,-0.113,-0.098,-1.098
13:58.1,-0.676,0.121,-1.234
13:58.1,0.105,0.125,-0.602
13:58.1,0.773,0.008,0.625
13:58.2,2.289,-0.008,1.086
13:58.2,1.484,-0.031,-0.07
13:58.2,0.535,0.117,-0.23
13:58.3,0.73,-0.52,-0.508
13:58.3,1.07,-0.137,-0.559
13:58.3,0.801,-0.125,-0.531
13:58.4,0.656,0.023,-0.605
13:58.4,0.273,0.203,-1.043
13:58.4,-0.051,0.043,-1.031
13:58.5,0.203,-0.043,-0.961
13:58.5,0.715,-0.07,-0.852
13:58.5,0.707,-0.188,-0.777
13:58.6,0.613,-0.156,-0.809
13:58.6,0.527,-0.059,-0.863
13:58.6,0.395,0.008,-0.902
13:58.7,0.355,-0.023,-0.918
13:58.7,0.43,-0.043,-0.898
13:58.7,0.488,-0.063,-0.875
13:58.8,0.516,-0.07,-0.871
13:58.8,0.48,-0.059,-0.887
13:58.8,0.449,-0.055,-0.887
13:58.9,0.457,-0.051,-0.887
13:58.9,0.465,-0.051,-0.891
13:58.9,0.469,-0.051,-0.887
13:59.0,0.484,-0.055,-0.887
13:59.0,0.492,-0.047,-0.883
13:59.0,0.465,-0.051,-0.887
13:59.1,0.461,-0.051,-0.887
13:59.1,0.469,-0.059,-0.891
13:59.1,0.465,-0.059,-0.887
13:59.2,0.461,-0.055,-0.891
13:59.2,0.473,-0.055,-0.887
13:59.2,0.465,-0.051,-0.887
13:59.3,0.457,-0.059,-0.891
13:59.3,0.461,-0.063,-0.891
13:59.3,0.457,-0.059,-0.891
13:59.4,0.461,-0.055,-0.887
13:59.4,0.473,-0.059,-0.887
13:59.4,0.465,-0.055,-0.891
13:59.5,0.461,-0.055,-0.891
13:59.5,0.465,-0.043,-0.891
13:59.5,0.461,-0.055,-0.891
13:59.6,0.453,-0.055,-0.891
13:59.6,0.445,-0.055,-0.902
13:59.6,0.445,-0.051,-0.895
13:59.7,0.465,-0.063,-0.895
13:59.7,0.441,-0.063,-0.895
13:59.7,0.434,-0.063,-0.902
13:59.8,0.434,-0.043,-0.902
13:59.8,0.461,-0.039,-0.891
13:59.8,0.469,-0.055,-0.883
13:59.9,0.473,-0.094,-0.895
13:59.9,0.438,-0.109,-0.91
13:59.9,0.398,-0.074,-0.914
14:00.0,0.402,-0.066,-0.902
14:00.0,0.48,-0.059,-0.898
14:00.0,0.508,-0.074,-0.887
14:00.1,0.469,-0.078,-0.895
14:00.1,0.41,-0.07,-0.906
14:00.1,0.402,-0.07,-0.914
14:00.2,0.438,-0.086,-0.902
14:00.2,0.457,-0.07,-0.895
14:00.2,0.449,-0.078,-0.898
14:00.3,0.422,-0.078,-0.906
14:00.3,0.422,-0.078,-0.91
14:00.3,0.434,-0.074,-0.902
14:00.4,0.445,-0.078,-0.902
14:00.4,0.43,-0.078,-0.91
14:00.4,0.414,-0.078,-0.914
14:00.5,0.43,-0.078,-0.91
14:00.5,0.434,-0.063,-0.91
14:00.5,0.422,-0.082,-0.91
14:00.6,0.418,-0.07,-0.91
14:00.6,0.434,-0.074,-0.91
14:00.6,0.43,-0.086,-0.91
14:00.7,0.41,-0.082,-0.914
14:00.7,0.395,-0.086,-0.922
14:00.7,0.391,-0.066,-0.918
14:00.8,0.383,-0.063,-0.918
14:00.8,0.398,-0.09,-0.918
14:00.8,0.422,-0.086,-0.914
14:00.9,0.41,-0.07,-0.914
14:00.9,0.395,-0.07,-0.918
14:00.9,0.391,-0.063,-0.914
14:01.0,0.422,-0.09,-0.91
14:01.0,0.449,-0.074,-0.91
14:01.0,0.422,-0.066,-0.914
14:01.1,0.402,-0.063,-0.914
14:01.1,0.406,-0.07,-0.918
14:01.1,0.414,-0.07,-0.91
14:01.2,0.426,-0.063,-0.906
14:01.2,0.426,-0.074,-0.914
14:01.2,0.41,-0.082,-0.918
14:01.3,0.398,-0.066,-0.914
14:01.3,0.406,-0.066,-0.914
14:01.3,0.398,-0.078,-0.918
14:01.4,0.402,-0.066,-0.918
14:01.4,0.406,-0.082,-0.914
14:01.4,0.418,-0.07,-0.914
14:01.5,0.41,-0.066,-0.918
14:01.5,0.418,-0.059,-0.914
14:01.5,0.426,-0.066,-0.91
14:01.6,0.422,-0.074,-0.918
14:01.6,0.406,-0.07,-0.918
14:01.6,0.398,-0.07,-0.918
14:01.7,0.41,-0.078,-0.914
14:01.7,0.402,-0.07,-0.914
14:01.7,0.395,-0.078,-0.914
14:01.8,0.398,-0.063,-0.918
14:01.8,0.402,-0.07,-0.914
14:01.8,0.402,-0.074,-0.918
14:01.9,0.418,-0.074,-0.914
14:01.9,0.438,-0.063,-0.906
14:01.9,0.426,-0.066,-0.914
14:02.0,0.395,-0.078,-0.922
14:02.0,0.391,-0.055,-0.918
14:02.0,0.402,-0.07,-0.914
14:02.1,0.418,-0.074,-0.918
14:02.1,0.406,-0.07,-0.914
14:02.1,0.402,-0.066,-0.914
14:02.2,0.406,-0.066,-0.914
14:02.2,0.402,-0.063,-0.914
14:02.2,0.406,-0.074,-0.914
14:02.3,0.398,-0.074,-0.914
14:02.3,0.398,-0.07,-0.914
14:02.3,0.402,-0.066,-0.918
14:02.4,0.406,-0.066,-0.918
14:02.4,0.406,-0.07,-0.918
14:02.4,0.41,-0.059,-0.914
14:02.5,0.434,-0.059,-0.91
14:02.5,0.449,-0.09,-0.906
14:02.5,0.414,-0.102,-0.918
14:02.6,0.246,0.105,-0.895
14:02.6,0.363,-0.168,-0.957
14:02.6,0.32,-0.012,-0.926
14:02.7,0.453,-0.063,-0.895
14:02.7,0.52,-0.105,-0.887
14:02.7,0.457,-0.066,-0.898
14:02.8,0.414,-0.055,-0.91
14:02.8,0.41,-0.059,-0.91
14:02.8,0.426,-0.07,-0.914
14:02.9,0.422,-0.059,-0.906
14:02.9,0.43,-0.051,-0.906
14:02.9,0.438,-0.051,-0.902
14:03.0,0.453,-0.063,-0.898
14:03.0,0.445,-0.059,-0.902
14:03.0,0.414,-0.051,-0.914
14:03.1,0.418,-0.055,-0.91
14:03.1,0.441,-0.051,-0.91
14:03.1,0.445,-0.066,-0.902
14:03.2,0.438,-0.066,-0.902
14:03.2,0.434,-0.059,-0.906
14:03.2,0.434,-0.047,-0.902
14:03.3,0.434,-0.059,-0.906
14:03.3,0.449,-0.082,-0.898
14:03.3,0.453,-0.078,-0.891
14:03.4,0.441,-0.059,-0.898
14:03.4,0.438,-0.066,-0.902
14:03.4,0.438,-0.063,-0.902
14:03.5,0.441,-0.059,-0.902
14:03.5,0.449,-0.059,-0.898
14:03.5,0.461,-0.059,-0.902
14:03.6,0.445,-0.063,-0.891
14:03.6,0.43,-0.059,-0.906
14:03.6,0.406,-0.086,-0.91
14:03.7,0.395,-0.078,-0.918
14:03.7,0.406,-0.055,-0.91
14:03.7,0.453,-0.051,-0.898
14:03.8,0.488,-0.047,-0.887
14:03.8,0.492,-0.051,-0.883
14:03.8,0.473,-0.059,-0.887
14:03.9,0.445,-0.059,-0.895
14:03.9,0.438,-0.055,-0.898
14:03.9,0.438,-0.066,-0.898
14:04.0,0.457,-0.066,-0.891
14:04.0,0.457,-0.059,-0.898
14:04.0,0.449,-0.07,-0.922
14:04.1,0.422,-0.07,-0.906
14:04.1,0.477,-0.039,-0.875
14:04.1,0.527,-0.117,-0.887
14:04.2,0.469,-0.027,-0.883
14:04.2,0.461,-0.047,-0.887
14:04.2,0.465,-0.055,-0.887
14:04.3,0.48,-0.039,-0.887
14:04.3,0.492,-0.047,-0.875
14:04.3,0.5,-0.055,-0.879
14:04.4,0.488,-0.059,-0.879
14:04.4,0.449,-0.047,-0.895
14:04.4,0.43,-0.047,-0.895
14:04.5,0.465,-0.051,-0.891
14:04.5,0.5,-0.051,-0.883
14:04.5,0.48,-0.063,-0.879
14:04.6,0.465,-0.055,-0.887
14:04.6,0.453,-0.043,-0.891
14:04.6,0.465,-0.047,-0.887
14:04.7,0.469,-0.055,-0.887
14:04.7,0.461,-0.063,-0.887
14:04.7,0.469,-0.07,-0.887
14:04.8,0.469,-0.063,-0.887
14:04.8,0.434,-0.059,-0.891
14:04.8,0.441,-0.039,-0.832
14:04.9,0.477,-0.039,-0.859
14:04.9,0.48,-0.074,-0.91
14:04.9,0.445,-0.059,-0.891
14:05.0,0.453,-0.043,-0.891
14:05.0,0.465,-0.051,-0.902
14:05.0,0.461,-0.07,-0.906
14:05.1,0.469,-0.063,-0.883
14:05.1,0.484,-0.047,-0.883
14:05.1,0.477,-0.051,-0.887
14:05.2,0.465,-0.063,-0.891
14:05.2,0.453,-0.055,-0.891
14:05.2,0.461,-0.059,-0.887
14:05.3,0.473,-0.066,-0.883
14:05.3,0.457,-0.074,-0.895
14:05.3,0.43,-0.063,-0.902
14:05.4,0.445,-0.051,-0.895
14:05.4,0.473,-0.059,-0.887
14:05.4,0.492,-0.059,-0.875
14:05.5,0.461,-0.059,-0.887
14:05.5,0.453,-0.051,-0.898
14:05.5,0.453,-0.047,-0.895
14:05.6,0.465,-0.055,-0.891
14:05.6,0.461,-0.055,-0.891
14:05.6,0.441,-0.078,-0.891
14:05.7,0.441,-0.098,-0.906
14:05.7,0.438,-0.07,-0.898
14:05.7,0.449,-0.051,-0.898
14:05.8,0.461,-0.039,-0.898
14:05.8,0.477,-0.043,-0.883
14:05.8,0.496,-0.063,-0.879
14:05.9,0.477,-0.07,-0.887
14:05.9,0.438,-0.059,-0.902
14:05.9,0.43,-0.059,-0.902
14:06.0,0.434,-0.078,-0.906
14:06.0,0.441,-0.063,-0.906
14:06.0,0.438,-0.055,-0.898
14:06.1,0.461,-0.051,-0.895
14:06.1,0.496,-0.055,-0.883
14:06.1,0.5,-0.051,-0.871
14:06.2,0.477,-0.051,-0.883
14:06.2,0.449,-0.063,-0.891
14:06.2,0.445,-0.055,-0.898
14:06.3,0.465,-0.051,-0.895
14:06.3,0.469,-0.063,-0.891
14:06.3,0.461,-0.063,-0.887
14:06.4,0.453,-0.066,-0.891
14:06.4,0.441,-0.078,-0.902
14:06.4,0.465,-0.051,-0.891
14:06.5,0.496,-0.027,-0.871
14:06.5,0.488,-0.012,-0.863
14:06.5,0.469,-0.09,-0.891
14:06.6,0.434,-0.07,-0.906
14:06.6,0.402,-0.051,-0.91
14:06.6,0.453,-0.059,-0.895
14:06.7,0.473,-0.063,-0.887
14:06.7,0.477,-0.055,-0.887
14:06.7,0.457,-0.059,-0.887
14:06.8,0.465,-0.07,-0.887
14:06.8,0.461,-0.059,-0.891
14:06.8,0.457,-0.055,-0.891
14:06.9,0.465,-0.055,-0.887
14:06.9,0.465,-0.063,-0.887
14:06.9,0.449,-0.055,-0.891
14:07.0,0.457,-0.059,-0.891
14:07.0,0.461,-0.047,-0.887
14:07.0,0.461,-0.055,-0.895
14:07.1,0.465,-0.063,-0.895
14:07.1,0.465,-0.059,-0.887
14:07.1,0.465,-0.051,-0.887
14:07.2,0.484,-0.055,-0.887
14:07.2,0.469,-0.059,-0.887
14:07.2,0.449,-0.059,-0.898
14:07.3,0.453,-0.063,-0.891
14:07.3,0.453,-0.059,-0.895
14:07.3,0.445,-0.055,-0.891
14:07.4,0.465,-0.059,-0.902
14:07.4,0.441,-0.047,-0.891
14:07.4,0.461,-0.047,-0.887
14:07.5,0.492,-0.059,-0.883
14:07.5,0.484,-0.063,-0.891
14:07.5,0.441,-0.051,-0.898
14:07.6,0.422,-0.055,-0.902
14:07.6,0.445,-0.066,-0.895
14:07.6,0.461,-0.059,-0.891
14:07.7,0.48,-0.055,-0.883
14:07.7,0.469,-0.055,-0.887
14:07.7,0.453,-0.059,-0.895
14:07.8,0.453,-0.055,-0.891
14:07.8,0.445,-0.066,-0.895
14:07.8,0.441,-0.063,-0.898
14:07.9,0.438,-0.059,-0.898
14:07.9,0.457,-0.047,-0.891
14:07.9,0.469,-0.051,-0.887
14:08.0,0.469,-0.063,-0.891
14:08.0,0.457,-0.051,-0.895
14:08.0,0.434,-0.063,-0.902
14:08.1,0.441,-0.059,-0.898
14:08.1,0.461,-0.051,-0.895
14:08.1,0.461,-0.047,-0.891
14:08.2,0.461,-0.051,-0.891
14:08.2,0.465,-0.066,-0.891
14:08.2,0.453,-0.066,-0.898
14:08.3,0.438,-0.055,-0.906
14:08.3,0.445,-0.055,-0.895
14:08.3,0.461,-0.051,-0.891
14:08.4,0.477,-0.059,-0.887
14:08.4,0.465,-0.063,-0.895
14:08.4,0.438,-0.055,-0.898
14:08.5,0.449,-0.055,-0.898
14:08.5,0.465,-0.047,-0.895
14:08.5,0.461,-0.059,-0.895
14:08.6,0.453,-0.059,-0.891
14:08.6,0.453,-0.055,-0.891
14:08.6,0.457,-0.055,-0.895
14:08.7,0.453,-0.059,-0.891
14:08.7,0.457,-0.055,-0.895
14:08.7,0.457,-0.059,-0.898
14:08.8,0.457,-0.059,-0.891
14:08.8,0.449,-0.055,-0.898
14:08.8,0.457,-0.055,-0.895
14:08.9,0.457,-0.059,-0.895
14:08.9,0.457,-0.059,-0.895
14:08.9,0.461,-0.063,-0.891
14:09.0,0.457,-0.055,-0.895
14:09.0,0.449,-0.055,-0.895
14:09.0,0.441,-0.059,-0.898
14:09.1,0.453,-0.055,-0.898
14:09.1,0.473,-0.055,-0.891
14:09.1,0.469,-0.063,-0.895
14:09.2,0.453,-0.051,-0.891
14:09.2,0.441,-0.059,-0.898
14:09.2,0.453,-0.063,-0.895
14:09.3,0.461,-0.055,-0.895
14:09.3,0.441,-0.063,-0.902
14:09.3,0.43,-0.059,-0.906
14:09.4,0.445,-0.055,-0.898
14:09.4,0.484,-0.059,-0.887
14:09.4,0.492,-0.055,-0.879
14:09.5,0.457,-0.055,-0.895
14:09.5,0.434,-0.051,-0.91
14:09.5,0.43,-0.063,-0.902
14:09.6,0.438,-0.07,-0.898
14:09.6,0.445,-0.051,-0.898
14:09.6,0.465,-0.051,-0.887
14:09.7,0.48,-0.051,-0.887
14:09.7,0.469,-0.063,-0.887
14:09.7,0.438,-0.066,-0.898
14:09.8,0.426,-0.063,-0.906
14:09.8,0.438,-0.055,-0.902
14:09.8,0.449,-0.047,-0.891
14:09.9,0.465,-0.051,-0.887
14:09.9,0.473,-0.055,-0.887
14:09.9,0.465,-0.063,-0.895
14:10.0,0.445,-0.066,-0.902
14:10.0,0.43,-0.059,-0.91
14:10.0,0.422,-0.051,-0.91
14:10.1,0.445,-0.055,-0.895
14:10.1,0.48,-0.055,-0.887
14:10.1,0.484,-0.059,-0.887
14:10.2,0.449,-0.059,-0.906
14:10.2,0.418,-0.055,-0.902
14:10.2,0.438,-0.063,-0.898
14:10.3,0.461,-0.055,-0.895
14:10.3,0.461,-0.059,-0.891
14:10.3,0.473,-0.055,-0.887
14:10.4,0.473,-0.055,-0.891
14:10.4,0.449,-0.059,-0.898
14:10.4,0.441,-0.07,-0.906
14:10.5,0.434,-0.055,-0.898
14:10.5,0.449,-0.043,-0.895
14:10.5,0.461,-0.043,-0.895
14:10.6,0.473,-0.055,-0.887
14:10.6,0.465,-0.066,-0.895
14:10.6,0.438,-0.063,-0.902
14:10.7,0.418,-0.051,-0.91
14:10.7,0.438,-0.047,-0.902
14:10.7,0.477,-0.063,-0.883
14:10.8,0.496,-0.055,-0.883
14:10.8,0.453,-0.055,-0.891
14:10.8,0.43,-0.059,-0.902
14:10.9,0.426,-0.055,-0.91
14:10.9,0.457,-0.07,-0.898
14:10.9,0.457,-0.066,-0.895
14:11.0,0.449,-0.055,-0.891
14:11.0,0.461,-0.043,-0.895
14:11.0,0.461,-0.051,-0.887
14:11.1,0.457,-0.066,-0.895
14:11.1,0.441,-0.063,-0.902
14:11.1,0.441,-0.066,-0.902
14:11.2,0.434,-0.051,-0.902
14:11.2,0.434,-0.051,-0.902
14:11.2,0.465,-0.063,-0.891
14:11.3,0.48,-0.059,-0.887
14:11.3,0.453,-0.059,-0.895
14:11.3,0.434,-0.059,-0.902
14:11.4,0.438,-0.059,-0.898
14:11.4,0.453,-0.059,-0.891
14:11.4,0.441,-0.059,-0.898
14:11.5,0.441,-0.055,-0.898
14:11.5,0.465,-0.059,-0.891
14:11.5,0.457,-0.063,-0.898
14:11.6,0.449,-0.055,-0.902
14:11.6,0.441,-0.051,-0.906
14:11.6,0.449,-0.055,-0.898
14:11.7,0.449,-0.059,-0.898
14:11.7,0.453,-0.063,-0.891
14:11.7,0.449,-0.063,-0.895
14:11.8,0.445,-0.055,-0.902
14:11.8,0.438,-0.051,-0.898
14:11.8,0.449,-0.055,-0.895
14:11.9,0.453,-0.063,-0.898
14:11.9,0.457,-0.063,-0.895
14:11.9,0.453,-0.055,-0.898
14:12.0,0.441,-0.055,-0.895
14:12.0,0.457,-0.043,-0.902
14:12.0,0.457,-0.055,-0.902
14:12.1,0.441,-0.055,-0.906
14:12.1,0.445,-0.059,-0.902
14:12.1,0.453,-0.059,-0.891
14:12.2,0.441,-0.055,-0.902
14:12.2,0.445,-0.055,-0.902
14:12.2,0.461,-0.059,-0.891
14:12.3,0.465,-0.059,-0.891
14:12.3,0.457,-0.055,-0.906
14:12.3,0.434,-0.051,-0.902
14:12.4,0.445,-0.059,-0.898
14:12.4,0.461,-0.066,-0.895
14:12.4,0.461,-0.059,-0.891
14:12.5,0.453,-0.055,-0.902
14:12.5,0.441,-0.047,-0.902
14:12.5,0.457,-0.066,-0.898
14:12.6,0.445,-0.047,-0.902
14:12.6,0.441,-0.043,-0.898
14:12.6,0.465,-0.082,-0.895
14:12.7,0.453,-0.059,-0.895
14:12.7,0.438,-0.051,-0.906
14:12.7,0.441,-0.063,-0.902
14:12.8,0.449,-0.051,-0.891
14:12.8,0.461,-0.055,-0.895
14:12.8,0.453,-0.063,-0.898
14:12.9,0.438,-0.059,-0.895
14:12.9,0.449,-0.055,-0.895
14:12.9,0.457,-0.059,-0.898
14:13.0,0.449,-0.055,-0.895
14:13.0,0.457,-0.043,-0.895
14:13.0,0.449,-0.059,-0.898
14:13.1,0.445,-0.055,-0.906
14:13.1,0.449,-0.055,-0.895
14:13.1,0.453,-0.059,-0.895
14:13.2,0.453,-0.055,-0.898
14:13.2,0.449,-0.055,-0.898
14:13.2,0.449,-0.063,-0.895
14:13.3,0.445,-0.055,-0.906
14:13.3,0.457,-0.055,-0.891
14:13.3,0.461,-0.055,-0.887
14:13.4,0.457,-0.063,-0.902
14:13.4,0.445,-0.059,-0.902
14:13.4,0.453,-0.055,-0.895
14:13.5,0.457,-0.059,-0.891
14:13.5,0.461,-0.047,-0.898
14:13.5,0.449,-0.055,-0.895
14:13.6,0.445,-0.063,-0.895
14:13.6,0.453,-0.063,-0.898
14:13.6,0.457,-0.055,-0.895
14:13.7,0.453,-0.051,-0.891
14:13.7,0.449,-0.055,-0.895
14:13.7,0.449,-0.063,-0.891
14:13.8,0.453,-0.063,-0.895
14:13.8,0.445,-0.059,-0.898
14:13.8,0.449,-0.055,-0.898
14:13.9,0.453,-0.055,-0.902
14:13.9,0.453,-0.059,-0.891
14:13.9,0.453,-0.059,-0.895
14:14.0,0.449,-0.055,-0.898
14:14.0,0.453,-0.043,-0.902
14:14.0,0.461,-0.059,-0.898
14:14.1,0.453,-0.055,-0.898
14:14.1,0.445,-0.055,-0.895
14:14.1,0.449,-0.063,-0.891
14:14.2,0.457,-0.059,-0.898
14:14.2,0.453,-0.055,-0.895
14:14.2,0.453,-0.055,-0.902
14:14.3,0.453,-0.059,-0.895
14:14.3,0.453,-0.055,-0.898
14:14.3,0.449,-0.055,-0.895
14:14.4,0.445,-0.055,-0.895
14:14.4,0.453,-0.059,-0.895
14:14.4,0.453,-0.055,-0.895
14:14.5,0.445,-0.055,-0.898
14:14.5,0.457,-0.051,-0.895
14:14.5,0.453,-0.047,-0.902
14:14.6,0.445,-0.059,-0.902
14:14.6,0.453,-0.059,-0.898
14:14.6,0.457,-0.055,-0.898
14:14.7,0.445,-0.059,-0.895
14:14.7,0.453,-0.055,-0.891
14:14.7,0.457,-0.055,-0.891
14:14.8,0.445,-0.055,-0.902
14:14.8,0.449,-0.059,-0.898
14:14.8,0.453,-0.059,-0.898
14:14.9,0.445,-0.051,-0.895
14:14.9,0.453,-0.055,-0.895
14:14.9,0.457,-0.059,-0.895
14:15.0,0.449,-0.055,-0.898
14:15.0,0.449,-0.043,-0.902
14:15.0,0.449,-0.059,-0.898
14:15.1,0.461,-0.059,-0.895
14:15.1,0.445,-0.055,-0.898
14:15.1,0.438,-0.055,-0.895
14:15.2,0.449,-0.055,-0.895
14:15.2,0.449,-0.059,-0.895
14:15.2,0.453,-0.063,-0.902
14:15.3,0.453,-0.063,-0.895
14:15.3,0.449,-0.059,-0.898
14:15.3,0.449,-0.063,-0.898
14:15.4,0.449,-0.059,-0.902
14:15.4,0.449,-0.055,-0.891
14:15.4,0.453,-0.055,-0.898
14:15.5,0.453,-0.059,-0.902
14:15.5,0.453,-0.051,-0.895
14:15.5,0.453,-0.055,-0.895
14:15.6,0.445,-0.055,-0.895
14:15.6,0.453,-0.055,-0.898
14:15.6,0.461,-0.059,-0.895
14:15.7,0.453,-0.059,-0.902
14:15.7,0.441,-0.055,-0.902
14:15.7,0.445,-0.051,-0.898
14:15.8,0.449,-0.055,-0.891
14:15.8,0.457,-0.059,-0.895
14:15.8,0.449,-0.063,-0.902
14:15.9,0.441,-0.055,-0.895
14:15.9,0.445,-0.055,-0.902
14:15.9,0.449,-0.059,-0.895
14:16.0,0.461,-0.063,-0.895
14:16.0,0.453,-0.043,-0.891
14:16.0,0.453,-0.059,-0.895
14:16.1,0.453,-0.055,-0.902
14:16.1,0.449,-0.051,-0.895
14:16.1,0.445,-0.055,-0.902
14:16.2,0.453,-0.055,-0.895
14:16.2,0.453,-0.055,-0.902
14:16.2,0.449,-0.055,-0.898
14:16.3,0.441,-0.055,-0.902
14:16.3,0.441,-0.059,-0.898
14:16.3,0.453,-0.055,-0.895
14:16.4,0.453,-0.055,-0.891
14:16.4,0.457,-0.063,-0.898
14:16.4,0.434,-0.055,-0.902
14:16.5,0.441,-0.051,-0.902
14:16.5,0.461,-0.043,-0.895
14:16.5,0.461,-0.059,-0.898
14:16.6,0.445,-0.055,-0.898
14:16.6,0.438,-0.055,-0.902
14:16.6,0.449,-0.059,-0.898
14:16.7,0.461,-0.055,-0.895
14:16.7,0.453,-0.059,-0.898
14:16.7,0.449,-0.055,-0.898
14:16.8,0.453,-0.059,-0.898
14:16.8,0.453,-0.055,-0.895
14:16.8,0.449,-0.055,-0.895
14:16.9,0.453,-0.059,-0.898
14:16.9,0.449,-0.055,-0.898
14:16.9,0.445,-0.055,-0.898
14:17.0,0.449,-0.063,-0.895
14:17.0,0.453,-0.047,-0.895
14:17.0,0.449,-0.055,-0.898
14:17.1,0.457,-0.055,-0.895
14:17.1,0.445,-0.059,-0.895
14:17.1,0.441,-0.055,-0.898
14:17.2,0.453,-0.055,-0.895
14:17.2,0.457,-0.055,-0.898
14:17.2,0.449,-0.055,-0.898
14:17.3,0.457,-0.055,-0.898
14:17.3,0.453,-0.059,-0.898
14:17.3,0.453,-0.055,-0.902
14:17.4,0.445,-0.055,-0.891
14:17.4,0.453,-0.055,-0.895
14:17.4,0.453,-0.059,-0.898
14:17.5,0.461,-0.055,-0.898
14:17.5,0.457,-0.047,-0.898
14:17.5,0.453,-0.055,-0.898
14:17.6,0.457,-0.059,-0.895
14:17.6,0.449,-0.055,-0.898
14:17.6,0.445,-0.055,-0.898
14:17.7,0.445,-0.059,-0.902
14:17.7,0.441,-0.055,-0.895
14:17.7,0.449,-0.055,-0.891
14:17.8,0.445,-0.059,-0.898
14:17.8,0.453,-0.055,-0.902
14:17.8,0.445,-0.055,-0.902
14:17.9,0.449,-0.055,-0.898
14:17.9,0.453,-0.059,-0.898
14:17.9,0.453,-0.055,-0.898
14:18.0,0.453,-0.055,-0.891
14:18.0,0.457,-0.047,-0.898
14:18.0,0.449,-0.051,-0.895
14:18.1,0.453,-0.055,-0.895
14:18.1,0.449,-0.055,-0.902
14:18.1,0.445,-0.063,-0.895
14:18.2,0.441,-0.059,-0.898
14:18.2,0.449,-0.063,-0.902
14:18.2,0.449,-0.055,-0.895
14:18.3,0.453,-0.063,-0.898
14:18.3,0.453,-0.063,-0.898
14:18.3,0.449,-0.055,-0.898
14:18.4,0.461,-0.055,-0.891
14:18.4,0.461,-0.059,-0.895
14:18.4,0.441,-0.063,-0.898
14:18.5,0.43,-0.055,-0.902
14:18.5,0.449,-0.047,-0.906
14:18.5,0.449,-0.059,-0.898
14:18.6,0.438,-0.059,-0.902
14:18.6,0.434,-0.055,-0.898
14:18.6,0.449,-0.055,-0.895
14:18.7,0.453,-0.055,-0.902
14:18.7,0.449,-0.055,-0.895
14:18.7,0.457,-0.055,-0.902
14:18.8,0.449,-0.055,-0.898
14:18.8,0.438,-0.055,-0.898
14:18.8,0.445,-0.059,-0.898
14:18.9,0.438,-0.063,-0.898
14:18.9,0.445,-0.059,-0.898
14:18.9,0.438,-0.055,-0.902
14:19.0,0.449,-0.055,-0.906
14:19.0,0.453,-0.047,-0.898
14:19.0,0.449,-0.059,-0.895
14:19.1,0.445,-0.055,-0.895
14:19.1,0.445,-0.055,-0.902
14:19.1,0.441,-0.059,-0.902
14:19.2,0.445,-0.055,-0.895
14:19.2,0.453,-0.059,-0.898
14:19.2,0.449,-0.063,-0.898
14:19.3,0.445,-0.055,-0.898
14:19.3,0.453,-0.059,-0.898
14:19.3,0.445,-0.055,-0.895
14:19.4,0.453,-0.059,-0.898
14:19.4,0.457,-0.063,-0.902
14:19.4,0.441,-0.055,-0.898
14:19.5,0.434,-0.055,-0.898
14:19.5,0.449,-0.043,-0.902
14:19.5,0.441,-0.055,-0.898
14:19.6,0.445,-0.063,-0.902
14:19.6,0.441,-0.063,-0.898
14:19.6,0.449,-0.055,-0.898
14:19.7,0.445,-0.055,-0.898
14:19.7,0.438,-0.055,-0.891
14:19.7,0.445,-0.059,-0.902
14:19.8,0.449,-0.063,-0.902
14:19.8,0.445,-0.055,-0.898
14:19.8,0.441,-0.059,-0.895
14:19.9,0.438,-0.059,-0.895
14:19.9,0.449,-0.059,-0.902
14:19.9,0.449,-0.055,-0.895
14:20.0,0.453,-0.055,-0.895
14:20.0,0.453,-0.047,-0.898
14:20.0,0.441,-0.055,-0.902
14:20.1,0.445,-0.059,-0.895
14:20.1,0.449,-0.059,-0.898
14:20.1,0.445,-0.059,-0.898
14:20.2,0.445,-0.059,-0.902
14:20.2,0.449,-0.059,-0.898
14:20.2,0.449,-0.059,-0.898
14:20.3,0.441,-0.055,-0.898
14:20.3,0.453,-0.059,-0.895
14:20.3,0.457,-0.059,-0.895
14:20.4,0.438,-0.055,-0.902
14:20.4,0.453,-0.055,-0.902
14:20.4,0.453,-0.059,-0.902
14:20.5,0.445,-0.059,-0.902
14:20.5,0.445,-0.047,-0.902
14:20.5,0.445,-0.055,-0.906
14:20.6,0.457,-0.055,-0.898
14:20.6,0.449,-0.059,-0.895
14:20.6,0.445,-0.055,-0.902
14:20.7,0.445,-0.059,-0.898
14:20.7,0.445,-0.063,-0.906
14:20.7,0.449,-0.055,-0.898
14:20.8,0.445,-0.055,-0.902
14:20.8,0.449,-0.063,-0.902
14:20.8,0.445,-0.059,-0.898
14:20.9,0.449,-0.059,-0.895
14:20.9,0.449,-0.055,-0.898
14:20.9,0.441,-0.055,-0.902
14:21.0,0.449,-0.059,-0.895
14:21.0,0.449,-0.059,-0.895
14:21.0,0.449,-0.059,-0.895
14:21.1,0.449,-0.059,-0.895
14:21.1,0.449,-0.059,-0.895
14:21.1,0.449,-0.059,-0.895
14:21.2,0.449,-0.059,-0.895
14:21.2,0.449,-0.059,-0.895
14:21.2,0.449,-0.059,-0.895
14:21.3,0.449,-0.059,-0.895
14:21.3,0.449,-0.059,-0.895
14:21.3,0.449,-0.059,-0.895
14:21.4,0.449,-0.059,-0.895
14:21.4,0.449,-0.059,-0.895
14:21.4,0.449,-0.059,-0.895
14:21.5,0.449,-0.059,-0.895
14:21.5,0.449,-0.059,-0.895
14:21.5,0.449,-0.059,-0.895
14:21.6,0.449,-0.059,-0.895
14:21.6,0.449,-0.059,-0.895
14:21.6,0.449,-0.059,-0.895
14:21.7,0.449,-0.059,-0.895
14:21.7,0.449,-0.059,-0.895
14:21.7,0.449,-0.059,-0.895
14:21.8,0.449,-0.059,-0.895
14:21.8,0.449,-0.059,-0.895
14:21.8,0.449,-0.059,-0.895
14:21.9,0.449,-0.059,-0.895
14:21.9,0.449,-0.059,-0.895
14:21.9,0.449,-0.059,-0.895
14:22.0,0.449,-0.059,-0.895
14:22.0,0.449,-0.059,-0.895
14:22.0,0.449,-0.059,-0.895
14:22.1,0.449,-0.059,-0.895
14:22.1,0.449,-0.059,-0.895
14:22.1,0.449,-0.059,-0.895
14:22.2,0.449,-0.059,-0.895
14:22.2,0.449,-0.059,-0.895
14:22.2,0.449,-0.059,-0.895
14:22.3,0.449,-0.059,-0.895
14:22.3,0.449,-0.059,-0.895
14:22.3,0.449,-0.059,-0.895
14:22.4,0.449,-0.059,-0.895
14:22.4,0.449,-0.059,-0.895
14:22.4,0.449,-0.059,-0.895
14:22.5,0.449,-0.059,-0.895
14:22.5,0.449,-0.059,-0.895
14:22.5,0.449,-0.059,-0.895
14:22.6,0.449,-0.059,-0.895
14:22.6,0.449,-0.059,-0.895
14:22.6,0.449,-0.059,-0.895
14:22.7,0.449,-0.059,-0.895
14:22.7,0.449,-0.059,-0.895
14:22.7,0.449,-0.059,-0.895
14:22.8,0.449,-0.059,-0.895
14:22.8,0.449,-0.059,-0.895
14:22.8,0.449,-0.059,-0.895
14:22.9,0.449,-0.059,-0.895
14:22.9,0.449,-0.059,-0.895
14:22.9,0.449,-0.059,-0.895
14:23.0,0.449,-0.059,-0.895
14:23.0,0.449,-0.059,-0.895
14:23.0,0.449,-0.059,-0.895
14:23.1,0.449,-0.059,-0.895
14:23.1,0.449,-0.059,-0.895
14:23.1,0.449,-0.059,-0.895
14:23.2,0.449,-0.059,-0.895
14:23.2,0.449,-0.059,-0.895
14:23.2,0.449,-0.059,-0.895
14:23.3,0.449,-0.059,-0.895
14:23.3,0.449,-0.059,-0.895
14:23.3,0.449,-0.059,-0.895
14:23.4,0.449,-0.059,-0.895
14:23.4,0.449,-0.059,-0.895
14:23.4,0.449,-0.059,-0.895
14:23.5,0.449,-0.059,-0.895
14:23.5,0.449,-0.059,-0.895
14:23.5,0.449,-0.059,-0.895
14:23.6,0.449,-0.059,-0.895
14:23.6,0.449,-0.059,-0.895
14:23.6,0.449,-0.059,-0.895
14:23.7,0.449,-0.059,-0.895
14:23.7,0.449,-0.059,-0.895
14:23.7,0.449,-0.059,-0.895
14:23.8,0.449,-0.059,-0.895
14:23.8,0.449,-0.059,-0.895
14:23.8,0.449,-0.059,-0.895
14:23.9,0.449,-0.059,-0.895
14:23.9,0.449,-0.059,-0.895
14:23.9,0.449,-0.059,-0.895
14:24.0,0.449,-0.059,-0.895
14:24.0,0.184,-0.121,-0.891
14:24.0,0.371,-0.102,-0.938
14:24.1,0.543,-0.063,-0.871
14:24.1,0.516,-0.051,-0.875
14:24.1,0.449,-0.051,-0.883
14:24.2,0.418,-0.043,-0.902
14:24.2,0.445,-0.055,-0.906
14:24.2,0.457,-0.066,-0.895
14:24.3,0.449,-0.066,-0.891
14:24.3,0.453,-0.063,-0.902
14:24.3,0.441,-0.055,-0.902
14:24.4,0.438,-0.051,-0.91
14:24.4,0.445,-0.055,-0.902
14:24.4,0.457,-0.066,-0.898
14:24.5,0.445,-0.063,-0.895
14:24.5,0.434,-0.043,-0.906
14:24.5,0.434,-0.055,-0.902
14:24.6,0.457,-0.063,-0.898
14:24.6,0.438,-0.059,-0.902
14:24.6,0.438,-0.055,-0.906
14:24.7,0.449,-0.055,-0.902
14:24.7,0.449,-0.063,-0.902
14:24.7,0.438,-0.055,-0.906
14:24.8,0.445,-0.051,-0.898
14:24.8,0.461,-0.059,-0.895
14:24.8,0.457,-0.063,-0.891
14:24.9,0.449,-0.055,-0.898
14:24.9,0.453,-0.055,-0.898
14:24.9,0.461,-0.059,-0.895
14:25.0,0.457,-0.059,-0.898
14:25.0,0.449,-0.055,-0.902
14:25.0,0.434,-0.074,-0.91
14:25.1,0.426,-0.066,-0.906
14:25.1,0.457,-0.051,-0.891
14:25.1,0.496,-0.051,-0.887
14:25.2,0.496,-0.051,-0.887
14:25.2,0.457,-0.055,-0.895
14:25.2,0.434,-0.066,-0.91
14:25.3,0.445,-0.055,-0.906
14:25.3,0.461,-0.047,-0.891
14:25.3,0.473,-0.063,-0.891
14:25.4,0.445,-0.059,-0.906
14:25.4,0.445,-0.055,-0.895
14:25.4,0.453,-0.063,-0.898
14:25.5,0.453,-0.051,-0.895
14:25.5,0.469,-0.035,-0.891
14:25.5,0.473,-0.051,-0.887
14:25.6,0.461,-0.055,-0.895
14:25.6,0.461,-0.066,-0.891
14:25.6,0.469,-0.055,-0.895
14:25.7,0.469,-0.043,-0.883
14:25.7,0.48,-0.047,-0.887
14:25.7,0.48,-0.043,-0.887
14:25.8,0.461,-0.063,-0.895
14:25.8,0.453,-0.066,-0.887
14:25.8,0.465,-0.059,-0.887
14:25.9,0.457,-0.047,-0.891
14:25.9,0.465,-0.051,-0.891
14:25.9,0.469,-0.066,-0.891
14:26.0,0.465,-0.051,-0.887
14:26.0,0.496,-0.027,-0.887
14:26.0,0.512,-0.047,-0.871
14:26.1,0.504,-0.055,-0.867
14:26.1,0.488,-0.043,-0.875
14:26.1,0.473,-0.055,-0.879
14:26.2,0.473,-0.059,-0.883
14:26.2,0.473,-0.059,-0.879
14:26.2,0.477,-0.055,-0.883
14:26.3,0.473,-0.055,-0.887
14:26.3,0.473,-0.059,-0.887
14:26.3,0.477,-0.059,-0.883
14:26.4,0.469,-0.059,-0.887
14:26.4,0.477,-0.047,-0.883
14:26.4,0.473,-0.047,-0.887
14:26.5,0.477,-0.063,-0.887
14:26.5,0.492,-0.043,-0.883
14:26.5,0.5,-0.055,-0.875
14:26.6,0.484,-0.055,-0.879
14:26.6,0.484,-0.047,-0.883
14:26.6,0.469,-0.063,-0.887
14:26.7,0.465,-0.059,-0.887
14:26.7,0.461,-0.059,-0.891
14:26.7,0.469,-0.059,-0.887
14:26.8,0.465,-0.055,-0.887
14:26.8,0.473,-0.051,-0.887
14:26.8,0.477,-0.063,-0.887
14:26.9,0.469,-0.059,-0.887
14:26.9,0.469,-0.055,-0.887
14:26.9,0.465,-0.055,-0.887
14:27.0,0.469,-0.055,-0.887
14:27.0,0.473,-0.043,-0.887
14:27.0,0.469,-0.055,-0.887
14:27.1,0.461,-0.059,-0.891
14:27.1,0.465,-0.051,-0.887
14:27.1,0.473,-0.059,-0.887
14:27.2,0.43,-0.07,-0.934
14:27.2,0.188,-0.086,-1.082
14:27.2,-0.254,0.094,-0.883
14:27.3,0.582,0.133,-0.484
14:27.3,1.301,-0.047,0.184
14:27.3,1.762,-0.32,-0.152
14:27.4,0.863,-0.043,-0.473
14:27.4,0.863,-0.199,-0.313
14:27.4,1.133,-0.203,-0.414
14:27.5,0.613,-0.074,-0.625
14:27.5,0.688,0.012,-0.699
14:27.5,0.359,0.145,-0.891
14:27.6,-0.859,0.125,-1.129
14:27.6,-0.25,-0.016,-1.047
14:27.6,0.477,0.031,-0.797
14:27.7,1.109,-0.219,-0.73
14:27.7,0.793,-0.094,-0.68
14:27.7,0.605,-0.086,-0.836
14:27.8,0.438,0.023,-0.898
14:27.8,0.254,-0.043,-0.945
14:27.8,0.301,-0.023,-0.934
14:27.9,0.512,-0.078,-0.879
14:27.9,0.574,-0.063,-0.855
14:27.9,0.508,-0.043,-0.867
14:28.0,0.441,-0.043,-0.891
14:28.0,0.43,-0.043,-0.906
14:28.0,0.453,-0.051,-0.895
14:28.1,0.469,-0.047,-0.887
14:28.1,0.473,-0.047,-0.887
14:28.1,0.469,-0.051,-0.887
14:28.2,0.473,-0.047,-0.887
14:28.2,0.465,-0.047,-0.887
14:28.2,0.461,-0.047,-0.895
14:28.3,0.465,-0.055,-0.891
14:28.3,0.465,-0.055,-0.891
14:28.3,0.457,-0.055,-0.891
14:28.4,0.453,-0.043,-0.895
14:28.4,0.465,-0.039,-0.887
14:28.4,0.48,-0.055,-0.895
14:28.5,0.469,-0.055,-0.887
14:28.5,0.457,-0.035,-0.898
14:28.5,0.457,-0.047,-0.895
14:28.6,0.473,-0.055,-0.887
14:28.6,0.465,-0.055,-0.887
14:28.6,0.457,-0.055,-0.895
14:28.7,0.457,-0.047,-0.891
14:28.7,0.469,-0.043,-0.879
14:28.7,0.473,-0.047,-0.891
14:28.8,0.465,-0.043,-0.891
14:28.8,0.445,-0.043,-0.898
14:28.8,0.449,-0.047,-0.895
14:28.9,0.453,-0.055,-0.898
14:28.9,0.457,-0.051,-0.895
14:28.9,0.457,-0.051,-0.898
14:29.0,0.461,-0.055,-0.891
14:29.0,0.461,-0.043,-0.895
14:29.0,0.453,-0.051,-0.898
14:29.1,0.449,-0.051,-0.898
14:29.1,0.445,-0.055,-0.898
14:29.1,0.453,-0.055,-0.898
14:29.2,0.449,-0.051,-0.895
14:29.2,0.445,-0.051,-0.898
14:29.2,0.453,-0.051,-0.895
14:29.3,0.453,-0.055,-0.895
14:29.3,0.453,-0.055,-0.898
14:29.3,0.449,-0.051,-0.902
14:29.4,0.457,-0.055,-0.898
14:29.4,0.457,-0.055,-0.891
14:29.4,0.453,-0.055,-0.902
14:29.5,0.449,-0.051,-0.902
14:29.5,0.453,-0.043,-0.902
14:29.5,0.457,-0.051,-0.895
14:29.6,0.461,-0.051,-0.891
14:29.6,0.453,-0.047,-0.902
14:29.6,0.449,-0.055,-0.898
14:29.7,0.449,-0.055,-0.898
14:29.7,0.453,-0.051,-0.895
14:29.7,0.449,-0.051,-0.895
14:29.8,0.453,-0.051,-0.898
14:29.8,0.457,-0.051,-0.895
14:29.8,0.453,-0.051,-0.898
14:29.9,0.441,-0.051,-0.895
14:29.9,0.461,-0.051,-0.898
14:29.9,0.453,-0.047,-0.895
14:30.0,0.445,-0.051,-0.895
14:30.0,0.457,-0.043,-0.898
14:30.0,0.457,-0.047,-0.898
14:30.1,0.441,-0.055,-0.902
14:30.1,0.438,-0.051,-0.902
14:30.1,0.453,-0.059,-0.895
14:30.2,0.461,-0.055,-0.898
14:30.2,0.438,-0.047,-0.898
14:30.2,0.449,-0.051,-0.895
14:30.3,0.453,-0.051,-0.895
14:30.3,0.457,-0.047,-0.91
14:30.3,0.453,-0.055,-0.906
14:30.4,0.438,-0.055,-0.898
14:30.4,0.449,-0.051,-0.898
14:30.4,0.449,-0.047,-0.902
14:30.5,0.453,-0.051,-0.895
14:30.5,0.461,-0.047,-0.895
14:30.5,0.441,-0.051,-0.902
14:30.6,0.434,-0.047,-0.902
14:30.6,0.457,-0.051,-0.891
14:30.6,0.465,-0.051,-0.895
14:30.7,0.438,-0.055,-0.902
14:30.7,0.434,-0.047,-0.902
14:30.7,0.453,-0.047,-0.895
14:30.8,0.465,-0.051,-0.891
14:30.8,0.449,-0.051,-0.898
14:30.8,0.438,-0.055,-0.902
14:30.9,0.453,-0.055,-0.895
14:30.9,0.457,-0.051,-0.895
14:30.9,0.453,-0.051,-0.895
14:31.0,0.449,-0.043,-0.898
14:31.0,0.457,-0.047,-0.895
14:31.0,0.457,-0.051,-0.898
14:31.1,0.453,-0.051,-0.898
14:31.1,0.449,-0.051,-0.895
14:31.1,0.453,-0.055,-0.895
14:31.2,0.457,-0.051,-0.898
14:31.2,0.449,-0.047,-0.895
14:31.2,0.457,-0.055,-0.895
14:31.3,0.461,-0.051,-0.895
14:31.3,0.449,-0.051,-0.898
14:31.3,0.438,-0.055,-0.895
14:31.4,0.449,-0.055,-0.902
14:31.4,0.461,-0.051,-0.898
14:31.4,0.453,-0.051,-0.898
14:31.5,0.449,-0.051,-0.898
14:31.5,0.453,-0.043,-0.898
14:31.5,0.449,-0.059,-0.898
14:31.6,0.453,-0.055,-0.898
14:31.6,0.449,-0.055,-0.898
14:31.6,0.457,-0.051,-0.891
14:31.7,0.445,-0.047,-0.891
14:31.7,0.453,-0.051,-0.895
14:31.7,0.457,-0.055,-0.895
14:31.8,0.457,-0.047,-0.895
14:31.8,0.449,-0.055,-0.902
14:31.8,0.449,-0.051,-0.902
14:31.9,0.449,-0.047,-0.895
14:31.9,0.445,-0.051,-0.902
14:31.9,0.453,-0.051,-0.895
14:32.0,0.461,-0.055,-0.895
14:32.0,0.449,-0.039,-0.898
14:32.0,0.441,-0.047,-0.898
14:32.1,0.457,-0.051,-0.895
14:32.1,0.457,-0.051,-0.898
14:32.1,0.457,-0.055,-0.898
14:32.2,0.449,-0.051,-0.895
14:32.2,0.449,-0.043,-0.895
14:32.2,0.438,-0.051,-0.898
14:32.3,0.449,-0.051,-0.902
14:32.3,0.449,-0.051,-0.898
14:32.3,0.445,-0.047,-0.898
14:32.4,0.445,-0.051,-0.906
14:32.4,0.457,-0.055,-0.895
14:32.4,0.453,-0.055,-0.898
14:32.5,0.449,-0.051,-0.902
14:32.5,0.453,-0.043,-0.898
14:32.5,0.434,-0.051,-0.914
14:32.6,0.43,-0.047,-0.898
14:32.6,0.488,-0.035,-0.883
14:32.6,0.5,-0.039,-0.879
14:32.7,0.473,-0.051,-0.887
14:32.7,0.426,-0.063,-0.906
14:32.7,0.402,-0.055,-0.914
14:32.8,0.445,-0.047,-0.895
14:32.8,0.496,-0.055,-0.887
14:32.8,0.469,-0.051,-0.891
14:32.9,0.438,-0.043,-0.906
14:32.9,0.434,-0.047,-0.902
14:32.9,0.461,-0.047,-0.895
14:33.0,0.465,-0.043,-0.891
14:33.0,0.449,-0.039,-0.891
14:33.0,0.461,-0.055,-0.891
14:33.1,0.461,-0.051,-0.898
14:33.1,0.449,-0.047,-0.895
14:33.1,0.445,-0.043,-0.895
14:33.2,0.457,-0.055,-0.895
14:33.2,0.457,-0.055,-0.906
14:33.2,0.441,-0.039,-0.898
14:33.3,0.453,-0.047,-0.895
14:33.3,0.461,-0.051,-0.891
14:33.3,0.469,-0.051,-0.891
14:33.4,0.449,-0.055,-0.898
14:33.4,0.438,-0.051,-0.898
14:33.4,0.457,-0.047,-0.895
14:33.5,0.461,-0.051,-0.891
14:33.5,0.457,-0.043,-0.898
14:33.5,0.449,-0.051,-0.902
14:33.6,0.445,-0.051,-0.902
14:33.6,0.445,-0.047,-0.895
14:33.6,0.453,-0.051,-0.898
14:33.7,0.457,-0.055,-0.895
14:33.7,0.453,-0.051,-0.895
14:33.7,0.449,-0.051,-0.898
14:33.8,0.457,-0.051,-0.895
14:33.8,0.461,-0.043,-0.895
14:33.8,0.453,-0.051,-0.891
14:33.9,0.449,-0.051,-0.895
14:33.9,0.449,-0.051,-0.895
14:33.9,0.453,-0.051,-0.891
14:34.0,0.445,-0.051,-0.902
14:34.0,0.453,-0.039,-0.902
14:34.0,0.453,-0.055,-0.898
14:34.1,0.453,-0.059,-0.875
14:34.1,0.445,-0.047,-0.883
14:34.1,0.449,-0.039,-0.918
14:34.2,0.445,-0.047,-0.902
14:34.2,0.461,-0.055,-0.887
14:34.2,0.453,-0.051,-0.895
14:34.3,0.453,-0.047,-0.91
14:34.3,0.445,-0.055,-0.906
14:34.3,0.422,-0.039,-0.891
14:34.4,0.469,-0.059,-0.887
14:34.4,0.477,-0.051,-0.891
14:34.4,0.434,-0.039,-0.902
14:34.5,0.414,-0.051,-0.91
14:34.5,0.457,-0.035,-0.895
14:34.5,0.48,-0.051,-0.887
14:34.6,0.461,-0.059,-0.898
14:34.6,0.43,-0.055,-0.91
14:34.6,0.438,-0.051,-0.895
14:34.7,0.465,-0.051,-0.891
14:34.7,0.461,-0.047,-0.891
14:34.7,0.441,-0.047,-0.902
14:34.8,0.441,-0.051,-0.895
14:34.8,0.445,-0.051,-0.898
14:34.8,0.453,-0.051,-0.891
14:34.9,0.457,-0.043,-0.895
14:34.9,0.438,-0.043,-0.898
14:34.9,0.441,-0.055,-0.898
14:35.0,0.457,-0.055,-0.895
14:35.0,0.461,-0.043,-0.902
14:35.0,0.449,-0.047,-0.902
14:35.1,0.434,-0.047,-0.891
14:35.1,0.445,-0.051,-0.895
14:35.1,0.461,-0.055,-0.891
14:35.2,0.449,-0.051,-0.895
14:35.2,0.441,-0.051,-0.898
14:35.2,0.445,-0.047,-0.898
14:35.3,0.449,-0.043,-0.895
14:35.3,0.465,-0.051,-0.883
14:35.3,0.457,-0.055,-0.895
14:35.4,0.457,-0.055,-0.906
14:35.4,0.438,-0.039,-0.902
14:35.4,0.445,-0.043,-0.898
14:35.5,0.449,-0.051,-0.898
14:35.5,0.449,-0.043,-0.902
14:35.5,0.445,-0.051,-0.895
14:35.6,0.426,-0.055,-0.906
14:35.6,0.441,-0.043,-0.902
14:35.6,0.492,-0.035,-0.879
14:35.7,0.5,-0.039,-0.879
14:35.7,0.453,-0.047,-0.898
14:35.7,0.434,-0.051,-0.902
14:35.8,0.453,-0.051,-0.898
14:35.8,0.453,-0.047,-0.902
14:35.8,0.449,-0.047,-0.898
14:35.9,0.457,-0.035,-0.891
14:35.9,0.477,-0.039,-0.887
14:35.9,0.469,-0.035,-0.887
14:36.0,0.441,-0.043,-0.895
14:36.0,0.438,-0.027,-0.902
14:36.0,0.461,-0.047,-0.898
14:36.1,0.473,-0.051,-0.887
14:36.1,0.441,-0.051,-0.898
14:36.1,0.434,-0.043,-0.898
14:36.2,0.461,-0.047,-0.895
14:36.2,0.465,-0.051,-0.891
14:36.2,0.449,-0.051,-0.898
14:36.3,0.457,-0.047,-0.895
14:36.3,0.461,-0.055,-0.895
14:36.3,0.457,-0.051,-0.891
14:36.4,0.461,-0.047,-0.891
14:36.4,0.461,-0.051,-0.895
14:36.4,0.461,-0.047,-0.891
14:36.5,0.453,-0.051,-0.891
14:36.5,0.465,-0.035,-0.891
14:36.5,0.465,-0.047,-0.891
14:36.6,0.457,-0.055,-0.898
14:36.6,0.441,-0.047,-0.898
14:36.6,0.457,-0.043,-0.891
14:36.7,0.469,-0.051,-0.891
14:36.7,0.465,-0.059,-0.898
14:36.7,0.438,-0.051,-0.902
14:36.8,0.441,-0.051,-0.895
14:36.8,0.461,-0.047,-0.891
14:36.8,0.473,-0.051,-0.887
14:36.9,0.457,-0.055,-0.895
14:36.9,0.449,-0.051,-0.902
14:36.9,0.457,-0.047,-0.887
14:37.0,0.484,-0.043,-0.887
14:37.0,0.477,-0.039,-0.898
14:37.0,0.445,-0.055,-0.902
14:37.1,0.434,-0.055,-0.902
14:37.1,0.465,-0.051,-0.891
14:37.1,0.473,-0.031,-0.883
14:37.2,0.461,-0.02,-0.887
14:37.2,0.453,-0.051,-0.891
14:37.2,0.484,-0.051,-0.883
14:37.3,0.5,-0.051,-0.883
14:37.3,0.438,-0.055,-0.898
14:37.3,0.422,-0.07,-0.906
14:37.4,0.457,-0.074,-0.902
14:37.4,0.43,-0.047,-0.902
14:37.4,0.438,-0.047,-0.906
14:37.5,0.457,-0.063,-0.895
14:37.5,0.461,-0.043,-0.895
14:37.5,0.438,-0.066,-0.902
14:37.6,0.406,-0.059,-0.91
14:37.6,0.426,-0.051,-0.91
14:37.6,0.461,-0.055,-0.902
14:37.7,0.469,-0.063,-0.898
14:37.7,0.461,-0.059,-0.898
14:37.7,0.438,-0.051,-0.895
14:37.8,0.441,-0.055,-0.906
14:37.8,0.453,-0.055,-0.891
14:37.8,0.465,-0.059,-0.895
14:37.9,0.461,-0.066,-0.898
14:37.9,0.418,-0.063,-0.906
14:37.9,0.398,-0.059,-0.914
14:38.0,0.422,-0.055,-0.906
14:38.0,0.453,-0.059,-0.902
14:38.0,0.449,-0.051,-0.902
14:38.1,0.434,-0.051,-0.898
14:38.1,0.43,-0.063,-0.906
14:38.1,0.43,-0.063,-0.906
14:38.2,0.43,-0.066,-0.906
14:38.2,0.441,-0.063,-0.898
14:38.2,0.434,-0.055,-0.906
14:38.3,0.441,-0.063,-0.898
14:38.3,0.469,-0.07,-0.891
14:38.3,0.461,-0.059,-0.891
14:38.4,0.453,-0.047,-0.906
14:38.4,0.449,-0.059,-0.898
14:38.4,0.434,-0.063,-0.906
14:38.5,0.422,-0.07,-0.914
14:38.5,0.43,-0.055,-0.91
14:38.5,0.434,-0.055,-0.898
14:38.6,0.453,-0.059,-0.895
14:38.6,0.449,-0.063,-0.898
14:38.6,0.438,-0.055,-0.898
14:38.7,0.434,-0.051,-0.902
14:38.7,0.441,-0.059,-0.902
14:38.7,0.449,-0.066,-0.898
14:38.8,0.434,-0.063,-0.902
14:38.8,0.43,-0.066,-0.91
14:38.8,0.434,-0.059,-0.902
14:38.9,0.441,-0.059,-0.902
14:38.9,0.449,-0.059,-0.898
14:38.9,0.453,-0.059,-0.895
14:39.0,0.441,-0.059,-0.906
14:39.0,0.449,-0.043,-0.902
14:39.0,0.445,-0.059,-0.895
14:39.1,0.449,-0.055,-0.898
14:39.1,0.449,-0.063,-0.898
14:39.1,0.441,-0.059,-0.898
14:39.2,0.441,-0.059,-0.895
14:39.2,0.445,-0.063,-0.895
14:39.2,0.449,-0.055,-0.891
14:39.3,0.453,-0.055,-0.895
14:39.3,0.453,-0.059,-0.891
14:39.3,0.449,-0.051,-0.891
14:39.4,0.453,-0.059,-0.91
14:39.4,0.453,-0.066,-0.902
14:39.4,0.434,-0.055,-0.891
14:39.5,0.453,-0.051,-0.898
14:39.5,0.461,-0.043,-0.891
14:39.5,0.453,-0.055,-0.895
14:39.6,0.449,-0.055,-0.895
14:39.6,0.434,-0.055,-0.91
14:39.6,0.434,-0.055,-0.902
14:39.7,0.457,-0.059,-0.895
14:39.7,0.453,-0.051,-0.898
14:39.7,0.441,-0.051,-0.902
14:39.8,0.441,-0.051,-0.902
14:39.8,0.461,-0.055,-0.891
14:39.8,0.465,-0.055,-0.887
14:39.9,0.449,-0.055,-0.898
14:39.9,0.438,-0.055,-0.906
14:39.9,0.449,-0.051,-0.891
14:40.0,0.461,-0.059,-0.895
14:40.0,0.457,-0.051,-0.898
14:40.0,0.434,-0.055,-0.902
14:40.1,0.434,-0.043,-0.895
14:40.1,0.457,-0.051,-0.891
14:40.1,0.465,-0.063,-0.898
14:40.2,0.441,-0.055,-0.898
14:40.2,0.434,-0.051,-0.906
14:40.2,0.449,-0.059,-0.898
14:40.3,0.453,-0.051,-0.891
14:40.3,0.457,-0.051,-0.895
14:40.3,0.457,-0.051,-0.902
14:40.4,0.449,-0.055,-0.898
14:40.4,0.449,-0.055,-0.902
14:40.4,0.445,-0.051,-0.898
14:40.5,0.449,-0.055,-0.898
14:40.5,0.453,-0.047,-0.902
14:40.5,0.438,-0.055,-0.902
14:40.6,0.438,-0.047,-0.902
14:40.6,0.441,-0.055,-0.906
14:40.6,0.434,-0.063,-0.898
14:40.7,0.449,-0.055,-0.891
14:40.7,0.453,-0.055,-0.902
14:40.7,0.434,-0.055,-0.906
14:40.8,0.434,-0.051,-0.906
14:40.8,0.434,-0.063,-0.91
14:40.8,0.449,-0.059,-0.895
14:40.9,0.457,-0.059,-0.895
14:40.9,0.453,-0.055,-0.902
14:40.9,0.418,-0.047,-0.906
14:41.0,0.43,-0.051,-0.906
14:41.0,0.453,-0.055,-0.898
14:41.0,0.465,-0.055,-0.902
14:41.1,0.438,-0.055,-0.898
14:41.1,0.43,-0.051,-0.898
14:41.1,0.449,-0.059,-0.902
14:41.2,0.453,-0.059,-0.898
14:41.2,0.438,-0.051,-0.902
14:41.2,0.434,-0.055,-0.91
14:41.3,0.441,-0.051,-0.898
14:41.3,0.449,-0.055,-0.898
14:41.3,0.461,-0.055,-0.902
14:41.4,0.438,-0.047,-0.906
14:41.4,0.43,-0.051,-0.902
14:41.4,0.457,-0.059,-0.898
14:41.5,0.457,-0.063,-0.898
14:41.5,0.453,-0.043,-0.898
14:41.5,0.438,-0.055,-0.902
14:41.6,0.453,-0.055,-0.898
14:41.6,0.445,-0.047,-0.906
14:41.6,0.414,-0.051,-0.906
14:41.7,0.441,-0.059,-0.898
14:41.7,0.469,-0.059,-0.891
14:41.7,0.469,-0.059,-0.902
14:41.8,0.406,-0.043,-0.914
14:41.8,0.398,-0.043,-0.914
14:41.8,0.453,-0.063,-0.898
14:41.9,0.473,-0.063,-0.895
14:41.9,0.445,-0.055,-0.898
14:41.9,0.43,-0.039,-0.906
14:42.0,0.434,-0.055,-0.91
14:42.0,0.449,-0.051,-0.895
14:42.0,0.445,-0.055,-0.898
14:42.1,0.438,-0.043,-0.906
14:42.1,0.434,-0.051,-0.902
14:42.1,0.438,-0.055,-0.898
14:42.2,0.438,-0.059,-0.902
14:42.2,0.43,-0.055,-0.91
14:42.2,0.434,-0.055,-0.902
14:42.3,0.445,-0.055,-0.895
14:42.3,0.449,-0.055,-0.906
14:42.3,0.434,-0.051,-0.914
14:42.4,0.418,-0.055,-0.906
14:42.4,0.434,-0.055,-0.906
14:42.4,0.457,-0.059,-0.902
14:42.5,0.445,-0.055,-0.902
14:42.5,0.43,-0.047,-0.906
14:42.5,0.418,-0.055,-0.906
14:42.6,0.426,-0.055,-0.906
14:42.6,0.441,-0.051,-0.898
14:42.6,0.445,-0.059,-0.902
14:42.7,0.438,-0.059,-0.91
14:42.7,0.422,-0.055,-0.91
14:42.7,0.43,-0.059,-0.91
14:42.8,0.441,-0.059,-0.898
14:42.8,0.441,-0.055,-0.898
14:42.8,0.43,-0.047,-0.902
14:42.9,0.426,-0.055,-0.91
14:42.9,0.438,-0.059,-0.906
14:42.9,0.449,-0.07,-0.906
14:43.0,0.438,-0.047,-0.906
14:43.0,0.402,-0.02,-0.906
14:43.0,0.445,-0.078,-0.898
14:43.1,0.461,-0.07,-0.898
14:43.1,0.43,-0.035,-0.906
14:43.1,0.418,-0.043,-0.91
14:43.2,0.43,-0.051,-0.902
14:43.2,0.449,-0.055,-0.898
14:43.2,0.445,-0.066,-0.898
14:43.3,0.438,-0.055,-0.91
14:43.3,0.434,-0.043,-0.906
14:43.3,0.438,-0.047,-0.902
14:43.4,0.449,-0.055,-0.898
14:43.4,0.438,-0.055,-0.906
14:43.4,0.434,-0.059,-0.906
14:43.5,0.43,-0.059,-0.906
14:43.5,0.426,-0.043,-0.906
14:43.5,0.434,-0.047,-0.906
14:43.6,0.449,-0.051,-0.902
14:43.6,0.438,-0.055,-0.91
14:43.6,0.434,-0.055,-0.898
14:43.7,0.461,-0.055,-0.891
14:43.7,0.457,-0.047,-0.898
14:43.7,0.422,-0.066,-0.914
14:43.8,0.375,-0.063,-0.922
14:43.8,0.375,-0.066,-0.922
14:43.8,0.418,-0.059,-0.914
14:43.9,0.457,-0.059,-0.898
14:43.9,0.441,-0.055,-0.906
14:43.9,0.406,-0.047,-0.914
14:44.0,0.398,-0.055,-0.91
14:44.0,0.434,-0.051,-0.91
14:44.0,0.461,-0.051,-0.898
14:44.1,0.457,-0.055,-0.898
14:44.1,0.426,-0.055,-0.906
14:44.1,0.41,-0.055,-0.914
14:44.2,0.422,-0.063,-0.91
14:44.2,0.434,-0.066,-0.914
14:44.2,0.383,-0.055,-0.922
14:44.3,0.395,-0.055,-0.918
14:44.3,0.457,-0.043,-0.898
14:44.3,0.469,-0.07,-0.898
14:44.4,0.445,-0.082,-0.91
14:44.4,0.418,-0.063,-0.914
14:44.4,0.426,-0.047,-0.906
14:44.5,0.441,-0.063,-0.902
14:44.5,0.445,-0.055,-0.906
14:44.5,0.426,-0.055,-0.914
14:44.6,0.449,-0.059,-0.895
14:44.6,0.445,-0.066,-0.902
14:44.6,0.426,-0.059,-0.91
14:44.7,0.422,-0.055,-0.914
14:44.7,0.434,-0.066,-0.906
14:44.7,0.445,-0.066,-0.902
14:44.8,0.434,-0.063,-0.906
14:44.8,0.43,-0.051,-0.906
14:44.8,0.438,-0.039,-0.891
14:44.9,0.473,-0.047,-0.895
14:44.9,0.496,-0.063,-0.93
14:44.9,0.43,-0.051,-0.914
14:45.0,0.422,-0.031,-0.883
14:45.0,0.465,-0.07,-0.906
14:45.0,0.441,-0.082,-0.914
14:45.1,0.43,-0.059,-0.898
14:45.1,0.453,-0.043,-0.895
14:45.1,0.465,-0.047,-0.895
14:45.2,0.461,-0.047,-0.895
14:45.2,0.465,-0.063,-0.891
14:45.2,0.457,-0.063,-0.891
14:45.3,0.453,-0.055,-0.902
14:45.3,0.426,-0.059,-0.906
14:45.3,0.402,-0.055,-0.914
14:45.4,0.406,-0.055,-0.914
14:45.4,0.43,-0.066,-0.906
14:45.4,0.43,-0.059,-0.91
14:45.5,0.41,-0.039,-0.914
14:45.5,0.445,-0.047,-0.902
14:45.5,0.449,-0.059,-0.902
14:45.6,0.426,-0.051,-0.91
14:45.6,0.43,-0.055,-0.91
14:45.6,0.43,-0.055,-0.914
14:45.7,0.418,-0.055,-0.91
14:45.7,0.418,-0.059,-0.914
14:45.7,0.422,-0.063,-0.91
14:45.8,0.414,-0.066,-0.914
14:45.8,0.418,-0.063,-0.914
14:45.8,0.422,-0.055,-0.902
14:45.9,0.43,-0.055,-0.906
14:45.9,0.43,-0.051,-0.91
14:45.9,0.438,-0.059,-0.91
14:46.0,0.43,-0.055,-0.906
14:46.0,0.434,-0.047,-0.906
14:46.0,0.438,-0.059,-0.902
14:46.1,0.414,-0.063,-0.91
14:46.1,0.406,-0.063,-0.918
14:46.1,0.406,-0.051,-0.914
14:46.2,0.41,-0.055,-0.914
14:46.2,0.418,-0.055,-0.906
14:46.2,0.43,-0.066,-0.91
14:46.3,0.438,-0.063,-0.906
14:46.3,0.422,-0.055,-0.91
14:46.3,0.418,-0.047,-0.91
14:46.4,0.43,-0.051,-0.91
14:46.4,0.438,-0.043,-0.906
14:46.4,0.422,-0.043,-0.898
14:46.5,0.461,-0.059,-0.891
14:46.5,0.477,-0.07,-0.891
14:46.5,0.414,-0.063,-0.91
14:46.6,0.379,-0.043,-0.918
14:46.6,0.426,-0.051,-0.906
14:46.6,0.473,-0.055,-0.891
14:46.7,0.465,-0.059,-0.891
14:46.7,0.445,-0.047,-0.895
14:46.7,0.457,-0.055,-0.902
14:46.8,0.457,-0.043,-0.898
14:46.8,0.449,-0.039,-0.891
14:46.8,0.461,-0.043,-0.891
14:46.9,0.461,-0.051,-0.887
14:46.9,0.453,-0.059,-0.895
14:46.9,0.445,-0.059,-0.906
14:47.0,0.457,-0.051,-0.891
14:47.0,0.473,-0.035,-0.887
14:47.0,0.477,-0.043,-0.887
14:47.1,0.469,-0.051,-0.891
14:47.1,0.453,-0.039,-0.887
14:47.1,0.469,-0.047,-0.934
14:47.2,0.477,-0.063,-0.879
14:47.2,0.488,-0.047,-0.875
14:47.2,0.469,-0.035,-0.891
14:47.3,0.465,-0.051,-0.895
14:47.3,0.461,-0.043,-0.891
14:47.3,0.469,-0.035,-0.891
14:47.4,0.461,-0.035,-0.895
14:47.4,0.473,-0.047,-0.887
14:47.4,0.469,-0.051,-0.887
14:47.5,0.477,-0.051,-0.887
14:47.5,0.469,-0.031,-0.895
14:47.5,0.449,-0.027,-0.891
14:47.6,0.473,-0.047,-0.887
14:47.6,0.473,-0.051,-0.887
14:47.6,0.469,-0.051,-0.887
14:47.7,0.465,-0.051,-0.887
14:47.7,0.461,-0.047,-0.887
14:47.7,0.469,-0.047,-0.887
14:47.8,0.48,-0.043,-0.883
14:47.8,0.477,-0.047,-0.887
14:47.8,0.461,-0.051,-0.891
14:47.9,0.461,-0.043,-0.887
14:47.9,0.477,-0.051,-0.883
14:47.9,0.477,-0.055,-0.887
14:48.0,0.473,-0.051,-0.887
14:48.0,0.469,-0.031,-0.887
14:48.0,0.461,-0.043,-0.891
14:48.1,0.465,-0.051,-0.887
14:48.1,0.469,-0.047,-0.891
14:48.1,0.469,-0.051,-0.887
14:48.2,0.48,-0.047,-0.887
14:48.2,0.473,-0.047,-0.887
14:48.2,0.465,-0.051,-0.887
14:48.3,0.465,-0.047,-0.887
14:48.3,0.48,-0.047,-0.887
14:48.3,0.477,-0.039,-0.883
14:48.4,0.477,-0.043,-0.887
14:48.4,0.473,-0.055,-0.887
14:48.4,0.477,-0.051,-0.887
14:48.5,0.473,-0.051,-0.887
14:48.5,0.473,-0.035,-0.879
14:48.5,0.469,-0.047,-0.883
14:48.6,0.469,-0.039,-0.887
14:48.6,0.465,-0.043,-0.887
14:48.6,0.473,-0.051,-0.887
14:48.7,0.477,-0.055,-0.887
14:48.7,0.469,-0.047,-0.887
14:48.7,0.469,-0.035,-0.887
14:48.8,0.473,-0.035,-0.887
14:48.8,0.48,-0.051,-0.887
14:48.8,0.473,-0.051,-0.887
14:48.9,0.48,-0.055,-0.879
14:48.9,0.484,-0.047,-0.883
14:48.9,0.473,-0.043,-0.887
14:49.0,0.473,-0.047,-0.883
14:49.0,0.488,-0.035,-0.883
14:49.0,0.473,-0.043,-0.887
14:49.1,0.469,-0.035,-0.887
14:49.1,0.477,-0.047,-0.879
14:49.1,0.488,-0.055,-0.883
14:49.2,0.473,-0.055,-0.887
14:49.2,0.477,-0.039,-0.887
14:49.2,0.477,-0.043,-0.883
14:49.3,0.477,-0.039,-0.883
14:49.3,0.473,-0.051,-0.887
14:49.3,0.473,-0.047,-0.883
14:49.4,0.469,-0.047,-0.883
14:49.4,0.48,-0.047,-0.883
14:49.4,0.477,-0.043,-0.887
14:49.5,0.477,-0.043,-0.883
14:49.5,0.488,-0.035,-0.883
14:49.5,0.484,-0.047,-0.883
14:49.6,0.469,-0.051,-0.891
14:49.6,0.465,-0.043,-0.887
14:49.6,0.48,-0.043,-0.883
14:49.7,0.496,-0.051,-0.879
14:49.7,0.477,-0.043,-0.879
14:49.7,0.469,-0.051,-0.887
14:49.8,0.465,-0.051,-0.887
14:49.8,0.465,-0.043,-0.887
14:49.8,0.469,-0.039,-0.883
14:49.9,0.492,-0.043,-0.883
14:49.9,0.492,-0.047,-0.883
14:49.9,0.469,-0.047,-0.895
14:50.0,0.465,-0.047,-0.887
14:50.0,0.48,-0.039,-0.887
14:50.0,0.48,-0.043,-0.887
14:50.1,0.492,-0.047,-0.879
14:50.1,0.477,-0.051,-0.887
14:50.1,0.469,-0.051,-0.887
14:50.2,0.465,-0.039,-0.887
14:50.2,0.473,-0.043,-0.887
14:50.2,0.492,-0.047,-0.883
14:50.3,0.492,-0.055,-0.883
14:50.3,0.469,-0.051,-0.887
14:50.3,0.465,-0.047,-0.883
14:50.4,0.469,-0.047,-0.879
14:50.4,0.473,-0.051,-0.883
14:50.4,0.477,-0.043,-0.883
14:50.5,0.477,-0.035,-0.887
14:50.5,0.48,-0.027,-0.887
14:50.5,0.477,-0.051,-0.887
14:50.6,0.473,-0.051,-0.887
14:50.6,0.473,-0.043,-0.887
14:50.6,0.48,-0.039,-0.887
14:50.7,0.48,-0.051,-0.883
14:50.7,0.465,-0.043,-0.887
14:50.7,0.465,-0.047,-0.887
14:50.8,0.48,-0.051,-0.883
14:50.8,0.477,-0.051,-0.883
14:50.8,0.469,-0.051,-0.887
14:50.9,0.461,-0.043,-0.887
14:50.9,0.469,-0.043,-0.887
14:50.9,0.48,-0.047,-0.883
14:51.0,0.48,-0.051,-0.883
14:51.0,0.473,-0.035,-0.887
14:51.0,0.465,-0.051,-0.887
14:51.1,0.477,-0.047,-0.883
14:51.1,0.477,-0.047,-0.887
14:51.1,0.477,-0.051,-0.887
14:51.2,0.469,-0.051,-0.887
14:51.2,0.473,-0.051,-0.887
14:51.2,0.48,-0.051,-0.887
14:51.3,0.473,-0.043,-0.887
14:51.3,0.469,-0.047,-0.887
14:51.3,0.477,-0.051,-0.887
14:51.4,0.473,-0.043,-0.887
14:51.4,0.469,-0.047,-0.887
14:51.4,0.469,-0.043,-0.887
14:51.5,0.465,-0.043,-0.887
14:51.5,0.473,-0.039,-0.891
14:51.5,0.465,-0.047,-0.887
14:51.6,0.477,-0.047,-0.887
14:51.6,0.473,-0.047,-0.887
14:51.6,0.48,-0.051,-0.883
14:51.7,0.48,-0.047,-0.883
14:51.7,0.469,-0.047,-0.887
14:51.7,0.465,-0.043,-0.887
14:51.8,0.473,-0.043,-0.887
14:51.8,0.477,-0.051,-0.879
14:51.8,0.477,-0.047,-0.887
14:51.9,0.473,-0.043,-0.887
14:51.9,0.473,-0.047,-0.887
14:51.9,0.473,-0.043,-0.887
14:52.0,0.469,-0.051,-0.887
14:52.0,0.48,-0.031,-0.891
14:52.0,0.473,-0.043,-0.887
14:52.1,0.48,-0.051,-0.887
14:52.1,0.473,-0.047,-0.887
14:52.1,0.465,-0.035,-0.887
14:52.2,0.469,-0.047,-0.883
14:52.2,0.473,-0.047,-0.887
14:52.2,0.473,-0.051,-0.887
14:52.3,0.465,-0.047,-0.887
14:52.3,0.473,-0.047,-0.887
14:52.3,0.473,-0.051,-0.887
14:52.4,0.473,-0.043,-0.883
14:52.4,0.465,-0.043,-0.887
14:52.4,0.48,-0.051,-0.887
14:52.5,0.473,-0.043,-0.887
14:52.5,0.473,-0.031,-0.887
14:52.5,0.473,-0.047,-0.883
14:52.6,0.473,-0.051,-0.883
14:52.6,0.469,-0.047,-0.879
14:52.6,0.484,-0.039,-0.883
14:52.7,0.488,-0.047,-0.883
14:52.7,0.477,-0.043,-0.887
14:52.7,0.477,-0.043,-0.887
14:52.8,0.469,-0.043,-0.883
14:52.8,0.469,-0.039,-0.883
14:52.8,0.484,-0.043,-0.883
14:52.9,0.477,-0.047,-0.883
14:52.9,0.465,-0.043,-0.887
14:52.9,0.48,-0.047,-0.887
14:53.0,0.48,-0.047,-0.887
14:53.0,0.48,-0.035,-0.887
14:53.0,0.477,-0.043,-0.883
14:53.1,0.477,-0.051,-0.883
14:53.1,0.473,-0.047,-0.883
14:53.1,0.477,-0.047,-0.887
14:53.2,0.477,-0.047,-0.887
14:53.2,0.469,-0.043,-0.887
14:53.2,0.484,-0.051,-0.883
14:53.3,0.48,-0.051,-0.887
14:53.3,0.465,-0.043,-0.891
14:53.3,0.473,-0.043,-0.883
14:53.4,0.484,-0.039,-0.879
14:53.4,0.473,-0.051,-0.887
14:53.4,0.465,-0.051,-0.891
14:53.5,0.461,-0.047,-0.891
14:53.5,0.48,-0.031,-0.887
14:53.5,0.48,-0.051,-0.887
14:53.6,0.469,-0.043,-0.883
14:53.6,0.465,-0.043,-0.887
14:53.6,0.473,-0.043,-0.887
14:53.7,0.48,-0.043,-0.887
14:53.7,0.477,-0.047,-0.883
14:53.7,0.477,-0.043,-0.887
14:53.8,0.473,-0.043,-0.883
14:53.8,0.469,-0.047,-0.887
14:53.8,0.469,-0.047,-0.883
14:53.9,0.469,-0.047,-0.887
14:53.9,0.469,-0.051,-0.883
14:53.9,0.465,-0.047,-0.887
14:54.0,0.477,-0.047,-0.887
14:54.0,0.477,-0.035,-0.883
14:54.0,0.48,-0.043,-0.883
14:54.1,0.477,-0.047,-0.887
14:54.1,0.469,-0.039,-0.887
14:54.1,0.48,-0.043,-0.879
14:54.2,0.477,-0.051,-0.883
14:54.2,0.473,-0.051,-0.887
14:54.2,0.465,-0.047,-0.887
14:54.3,0.473,-0.047,-0.887
14:54.3,0.465,-0.047,-0.887
14:54.3,0.473,-0.051,-0.887
14:54.4,0.473,-0.047,-0.887
14:54.4,0.465,-0.035,-0.891
14:54.4,0.469,-0.047,-0.887
14:54.5,0.469,-0.043,-0.883
14:54.5,0.473,-0.035,-0.883
14:54.5,0.465,-0.047,-0.887
14:54.6,0.473,-0.043,-0.891
14:54.6,0.469,-0.043,-0.883
14:54.6,0.477,-0.043,-0.887
14:54.7,0.473,-0.047,-0.887
14:54.7,0.465,-0.051,-0.887
14:54.7,0.465,-0.043,-0.891
14:54.8,0.473,-0.043,-0.887
14:54.8,0.473,-0.047,-0.883
14:54.8,0.473,-0.047,-0.887
14:54.9,0.465,-0.043,-0.887
14:54.9,0.465,-0.047,-0.887
14:54.9,0.469,-0.047,-0.887
14:55.0,0.469,-0.047,-0.887
14:55.0,0.473,-0.031,-0.887
14:55.0,0.465,-0.047,-0.891
14:55.1,0.465,-0.039,-0.887
14:55.1,0.473,-0.043,-0.887
14:55.1,0.477,-0.051,-0.887
14:55.2,0.465,-0.043,-0.887
14:55.2,0.461,-0.047,-0.887
14:55.2,0.465,-0.051,-0.887
14:55.3,0.465,-0.051,-0.887
14:55.3,0.473,-0.051,-0.887
14:55.3,0.477,-0.039,-0.887
14:55.4,0.477,-0.047,-0.891
14:55.4,0.465,-0.043,-0.891
14:55.4,0.461,-0.047,-0.891
14:55.5,0.477,-0.047,-0.887
14:55.5,0.477,-0.031,-0.887
14:55.5,0.461,-0.043,-0.887
14:55.6,0.469,-0.043,-0.887
14:55.6,0.473,-0.043,-0.887
14:55.6,0.473,-0.043,-0.887
14:55.7,0.469,-0.047,-0.887
14:55.7,0.469,-0.043,-0.891
14:55.7,0.465,-0.043,-0.891
14:55.8,0.469,-0.051,-0.891
14:55.8,0.465,-0.047,-0.887
14:55.8,0.473,-0.039,-0.887
14:55.9,0.465,-0.035,-0.887
14:55.9,0.461,-0.043,-0.891
14:55.9,0.465,-0.047,-0.887
14:56.0,0.465,-0.047,-0.887
14:56.0,0.473,-0.035,-0.887
14:56.0,0.469,-0.039,-0.891
14:56.1,0.469,-0.047,-0.887
14:56.1,0.461,-0.043,-0.891
14:56.1,0.461,-0.051,-0.887
14:56.2,0.465,-0.043,-0.887
14:56.2,0.465,-0.039,-0.887
14:56.2,0.465,-0.043,-0.887
14:56.3,0.469,-0.043,-0.887
14:56.3,0.469,-0.043,-0.891
14:56.3,0.469,-0.051,-0.887
14:56.4,0.461,-0.051,-0.887
14:56.4,0.461,-0.043,-0.887
14:56.4,0.469,-0.047,-0.891
14:56.5,0.465,-0.043,-0.887
14:56.5,0.469,-0.043,-0.891
14:56.5,0.469,-0.043,-0.887
14:56.6,0.473,-0.047,-0.891
14:56.6,0.465,-0.047,-0.895
14:56.6,0.457,-0.051,-0.895
14:56.7,0.465,-0.043,-0.891
14:56.7,0.473,-0.047,-0.887
14:56.7,0.457,-0.055,-0.895
14:56.8,0.445,-0.043,-0.891
14:56.8,0.469,-0.043,-0.891
14:56.8,0.469,-0.047,-0.887
14:56.9,0.453,-0.039,-0.895
14:56.9,0.453,-0.051,-0.887
14:56.9,0.461,-0.043,-0.887
14:57.0,0.473,-0.051,-0.887
14:57.0,0.457,-0.035,-0.898
14:57.0,0.188,-0.152,-1.074
14:57.1,-0.273,0.055,-1.055
14:57.1,0.477,0.156,-0.527
14:57.1,0.648,0.082,-0.027
14:57.2,1.602,-0.27,0.379
14:57.2,1.887,0.063,-0.152
14:57.2,0.73,-0.031,-0.125
14:57.3,1.078,-0.527,-0.113
14:57.3,0.941,-0.082,-0.391
14:57.3,0.934,-0.09,-0.496
14:57.4,0.609,0.004,-0.941
14:57.4,-0.551,0.285,-0.945
14:57.4,-0.773,0.039,-1.219
14:57.5,0.156,0.016,-0.863
14:57.5,1.305,-0.031,-0.703
14:57.5,0.906,-0.273,-0.645
14:57.6,0.629,-0.105,-0.828
14:57.6,0.426,0.039,-0.891
14:57.6,0.16,-0.004,-0.969
14:57.7,0.199,0,-0.961
14:57.7,0.473,-0.055,-0.891
14:57.7,0.625,-0.055,-0.848
14:57.8,0.57,-0.051,-0.863
14:57.8,0.477,-0.051,-0.891
14:57.8,0.375,-0.031,-0.914
14:57.9,0.363,-0.035,-0.918
14:57.9,0.445,-0.047,-0.902
14:57.9,0.488,-0.051,-0.891
14:58.0,0.457,-0.043,-0.898
14:58.0,0.43,-0.031,-0.902
14:58.0,0.426,-0.043,-0.902
14:58.1,0.453,-0.051,-0.895
14:58.1,0.465,-0.039,-0.891
14:58.1,0.441,-0.035,-0.902
14:58.2,0.426,-0.031,-0.906
14:58.2,0.438,-0.047,-0.898
14:58.2,0.461,-0.047,-0.898
14:58.3,0.461,-0.043,-0.895
14:58.3,0.441,-0.047,-0.898
14:58.3,0.434,-0.039,-0.898
14:58.4,0.449,-0.043,-0.902
14:58.4,0.453,-0.051,-0.902
14:58.4,0.426,-0.047,-0.91
14:58.5,0.434,-0.039,-0.902
14:58.5,0.465,-0.035,-0.898
14:58.5,0.461,-0.043,-0.895
14:58.6,0.445,-0.039,-0.898
14:58.6,0.438,-0.051,-0.902
14:58.6,0.438,-0.047,-0.898
14:58.7,0.449,-0.047,-0.906
14:58.7,0.441,-0.047,-0.891
14:58.7,0.449,-0.051,-0.895
14:58.8,0.434,-0.047,-0.914
14:58.8,0.43,-0.043,-0.91
14:58.8,0.445,-0.047,-0.898
14:58.9,0.461,-0.047,-0.895
14:58.9,0.449,-0.043,-0.891
14:58.9,0.441,-0.043,-0.902
14:59.0,0.438,-0.047,-0.906
14:59.0,0.445,-0.031,-0.906
14:59.0,0.449,-0.043,-0.902
14:59.1,0.441,-0.055,-0.906
14:59.1,0.434,-0.047,-0.906
14:59.1,0.43,-0.043,-0.906
14:59.2,0.434,-0.047,-0.906
14:59.2,0.449,-0.047,-0.898
14:59.2,0.453,-0.043,-0.898
14:59.3,0.441,-0.047,-0.902
14:59.3,0.441,-0.047,-0.902
14:59.3,0.445,-0.051,-0.895
14:59.4,0.461,-0.043,-0.891
14:59.4,0.449,-0.039,-0.898
14:59.4,0.438,-0.043,-0.902
14:59.5,0.434,-0.043,-0.902
14:59.5,0.441,-0.039,-0.906
14:59.5,0.43,-0.043,-0.902
14:59.6,0.43,-0.043,-0.902
14:59.6,0.449,-0.051,-0.898
14:59.6,0.441,-0.047,-0.898
14:59.7,0.43,-0.043,-0.914
14:59.7,0.422,-0.043,-0.898
14:59.7,0.426,-0.047,-0.902
14:59.8,0.414,-0.051,-0.91
14:59.8,0.449,-0.043,-0.898
14:59.8,0.48,-0.051,-0.887
14:59.9,0.465,-0.035,-0.887
14:59.9,0.449,-0.039,-0.891
14:59.9,0.434,-0.051,-0.902
15:00.0,0.457,-0.051,-0.887
15:00.0,0.465,-0.043,-0.895
15:00.0,0.441,-0.047,-0.902
15:00.1,0.43,-0.043,-0.906
15:00.1,0.438,-0.043,-0.902
15:00.1,0.473,-0.051,-0.891
15:00.2,0.473,-0.051,-0.895
15:00.2,0.426,-0.043,-0.906
15:00.2,0.41,-0.043,-0.906
15:00.3,0.453,-0.055,-0.895
15:00.3,0.449,-0.055,-0.906
15:00.3,0.418,-0.047,-0.91
15:00.4,0.418,-0.035,-0.91
15:00.4,0.449,-0.047,-0.902
15:00.4,0.449,-0.051,-0.902
15:00.5,0.422,-0.043,-0.91
15:00.5,0.414,-0.039,-0.914
15:00.5,0.438,-0.051,-0.91
15:00.6,0.434,-0.027,-0.898
15:00.6,0.406,-0.043,-0.91
15:00.6,0.477,-0.055,-0.895
15:00.7,0.52,-0.051,-0.875
15:00.7,0.469,-0.09,-0.898
15:00.7,0.387,-0.074,-0.918
15:00.8,0.371,-0.055,-0.918
15:00.8,0.402,-0.066,-0.914
15:00.8,0.422,-0.059,-0.902
15:00.9,0.465,-0.063,-0.902
15:00.9,0.457,-0.063,-0.891
15:00.9,0.383,0.051,-0.871
15:01.0,0.492,-0.25,-0.914
15:01.0,0.395,-0.039,-0.941
15:01.0,0.406,-0.039,-0.918
15:01.1,0.465,-0.035,-0.887
15:01.1,0.484,-0.047,-0.883
15:01.1,0.465,-0.07,-0.898
15:01.2,0.434,-0.066,-0.906
15:01.2,0.414,-0.055,-0.902
15:01.2,0.426,-0.051,-0.902
15:01.3,0.457,-0.078,-0.898
15:01.3,0.457,-0.059,-0.891
15:01.3,0.438,-0.035,-0.898
15:01.4,0.406,-0.039,-0.91
15:01.4,0.441,-0.043,-0.895
15:01.4,0.469,-0.055,-0.891
15:01.5,0.43,-0.055,-0.902
15:01.5,0.418,-0.059,-0.91
15:01.5,0.434,-0.063,-0.906
15:01.6,0.449,-0.055,-0.902
15:01.6,0.438,-0.027,-0.902
15:01.6,0.418,-0.047,-0.906
15:01.7,0.457,-0.082,-0.895
15:01.7,0.492,-0.07,-0.891
15:01.7,0.461,-0.035,-0.895
15:01.8,0.398,-0.008,-0.914
15:01.8,0.371,-0.051,-0.918
15:01.8,0.43,-0.098,-0.906
15:01.9,0.477,-0.086,-0.891
15:01.9,0.473,-0.047,-0.891
15:01.9,0.414,-0.004,-0.902
15:02.0,0.367,-0.047,-0.922
15:02.0,0.395,-0.074,-0.918
15:02.0,0.461,-0.078,-0.902
15:02.1,0.488,-0.043,-0.887
15:02.1,0.477,-0.02,-0.887
15:02.1,0.438,-0.031,-0.902
15:02.2,0.418,-0.055,-0.91
15:02.2,0.426,-0.074,-0.906
15:02.2,0.414,-0.086,-0.906
15:02.3,0.391,-0.051,-0.914
15:02.3,0.406,-0.059,-0.914
15:02.3,0.465,-0.047,-0.891
15:02.4,0.504,-0.031,-0.883
15:02.4,0.504,-0.004,-0.871
15:02.4,0.492,-0.02,-0.883
15:02.5,0.465,-0.074,-0.887
15:02.5,0.453,-0.102,-0.906
15:02.5,0.383,-0.082,-0.926
15:02.6,0.328,-0.043,-0.934
15:02.6,0.359,-0.051,-0.922
15:02.6,0.457,-0.039,-0.895
15:02.7,0.531,-0.043,-0.875
15:02.7,0.488,-0.035,-0.883
15:02.7,0.465,-0.047,-0.883
15:02.8,0.484,-0.055,-0.887
15:02.8,0.48,-0.055,-0.887
15:02.8,0.434,-0.051,-0.906
15:02.9,0.418,-0.074,-0.91
15:02.9,0.43,-0.066,-0.902
15:02.9,0.438,-0.063,-0.91
15:03.0,0.43,-0.055,-0.906
15:03.0,0.434,-0.035,-0.906
15:03.0,0.449,-0.051,-0.891
15:03.1,0.469,-0.063,-0.891
15:03.1,0.465,-0.059,-0.895
15:03.1,0.438,-0.055,-0.902
15:03.2,0.434,-0.055,-0.902
15:03.2,0.445,-0.063,-0.898
15:03.2,0.453,-0.063,-0.895
15:03.3,0.445,-0.059,-0.902
15:03.3,0.445,-0.055,-0.895
15:03.3,0.453,-0.043,-0.891
15:03.4,0.457,-0.051,-0.895
15:03.4,0.453,-0.063,-0.902
15:03.4,0.434,-0.059,-0.902
15:03.5,0.43,-0.063,-0.906
15:03.5,0.438,-0.051,-0.91
15:03.5,0.43,-0.059,-0.906
15:03.6,0.426,-0.063,-0.91
15:03.6,0.402,-0.043,-0.914
15:03.6,0.41,-0.051,-0.91
15:03.7,0.449,-0.055,-0.898
15:03.7,0.449,-0.066,-0.891
15:03.7,0.426,-0.055,-0.906
15:03.8,0.434,-0.059,-0.91
15:03.8,0.426,-0.055,-0.91
15:03.8,0.422,-0.063,-0.91
15:03.9,0.43,-0.059,-0.906
15:03.9,0.441,-0.063,-0.914
15:03.9,0.426,-0.063,-0.906
15:04.0,0.406,-0.043,-0.906
15:04.0,0.43,-0.055,-0.914
15:04.0,0.434,-0.066,-0.914
15:04.1,0.41,-0.051,-0.914
15:04.1,0.414,-0.059,-0.906
15:04.1,0.426,-0.059,-0.906
15:04.2,0.43,-0.063,-0.906
15:04.2,0.434,-0.066,-0.906
15:04.2,0.418,-0.063,-0.91
15:04.3,0.41,-0.055,-0.914
15:04.3,0.43,-0.055,-0.91
15:04.3,0.434,-0.059,-0.91
15:04.4,0.414,-0.051,-0.914
15:04.4,0.43,-0.059,-0.906
15:04.4,0.434,-0.063,-0.902
15:04.5,0.422,-0.059,-0.914
15:04.5,0.406,-0.059,-0.914
15:04.5,0.395,-0.078,-0.922
15:04.6,0.383,-0.066,-0.918
15:04.6,0.406,-0.055,-0.914
15:04.6,0.453,-0.051,-0.898
15:04.7,0.473,-0.059,-0.895
15:04.7,0.457,-0.063,-0.895
15:04.7,0.426,-0.063,-0.91
15:04.8,0.422,-0.051,-0.91
15:04.8,0.445,-0.051,-0.895
15:04.8,0.449,-0.074,-0.898
15:04.9,0.414,-0.066,-0.906
15:04.9,0.395,-0.055,-0.914
15:04.9,0.426,-0.051,-0.902
15:05.0,0.422,-0.059,-0.906
15:05.0,0.484,-0.043,-0.895
15:05.0,0.461,-0.098,-0.902
15:05.1,0.434,-0.059,-0.914
15:05.1,0.457,-0.043,-0.895
15:05.1,0.469,-0.063,-0.898
15:05.2,0.406,-0.059,-0.918
15:05.2,0.34,-0.047,-0.93
15:05.2,0.43,-0.086,-0.902
15:05.3,0.465,-0.105,-0.902
15:05.3,0.375,-0.063,-0.922
15:05.3,0.387,-0.043,-0.926
15:05.4,0.383,-0.043,-0.922
15:05.4,0.41,-0.035,-0.914
15:05.4,0.402,-0.055,-0.922
15:05.5,0.344,-0.047,-0.934
15:05.5,0.309,-0.035,-0.926
15:05.5,0.355,-0.055,-0.93
15:05.6,0.391,-0.051,-0.926
15:05.6,0.395,-0.023,-0.914
15:05.6,0.406,-0.047,-0.926
15:05.7,0.387,-0.043,-0.938
15:05.7,0.332,-0.035,-0.941
15:05.7,0.359,-0.047,-0.93
15:05.8,0.418,-0.043,-0.91
15:05.8,0.453,-0.039,-0.898
15:05.8,0.457,-0.043,-0.906
15:05.9,0.406,-0.035,-0.918
15:05.9,0.355,-0.047,-0.934
15:05.9,0.355,-0.051,-0.93
15:06.0,0.398,-0.043,-0.918
15:06.0,0.438,-0.039,-0.91
15:06.0,0.441,-0.055,-0.914
15:06.1,0.418,-0.043,-0.914
15:06.1,0.406,-0.039,-0.914
15:06.1,0.426,-0.063,-0.914
15:06.2,0.43,-0.063,-0.906
15:06.2,0.434,-0.047,-0.91
15:06.2,0.41,-0.055,-0.914
15:06.3,0.418,-0.047,-0.906
15:06.3,0.453,-0.059,-0.906
15:06.3,0.445,-0.055,-0.902
15:06.4,0.426,-0.051,-0.906
15:06.4,0.43,-0.055,-0.906
15:06.4,0.406,-0.047,-0.914
15:06.5,0.414,-0.047,-0.914
15:06.5,0.426,-0.039,-0.914
15:06.5,0.41,-0.051,-0.914
15:06.6,0.41,-0.039,-0.906
15:06.6,0.406,-0.027,-0.906
15:06.6,0.461,-0.063,-0.898
15:06.7,0.473,-0.07,-0.895
15:06.7,0.418,-0.055,-0.914
15:06.7,0.395,-0.047,-0.918
15:06.8,0.391,-0.051,-0.918
15:06.8,0.387,-0.059,-0.918
15:06.8,0.395,-0.047,-0.914
15:06.9,0.426,-0.055,-0.91
15:06.9,0.434,-0.059,-0.906
15:06.9,0.406,-0.059,-0.914
15:07.0,0.398,-0.047,-0.914
15:07.0,0.438,-0.023,-0.906
15:07.0,0.461,-0.055,-0.91
15:07.1,0.441,-0.055,-0.906
15:07.1,0.402,-0.047,-0.91
15:07.1,0.406,-0.051,-0.918
15:07.2,0.418,-0.043,-0.91
15:07.2,0.418,-0.047,-0.91
15:07.2,0.41,-0.039,-0.914
15:07.3,0.426,-0.043,-0.906
15:07.3,0.449,-0.063,-0.898
15:07.3,0.453,-0.059,-0.902
15:07.4,0.43,-0.047,-0.906
15:07.4,0.43,-0.043,-0.906
15:07.4,0.43,-0.051,-0.91
15:07.5,0.426,-0.055,-0.914
15:07.5,0.406,-0.055,-0.918
15:07.5,0.363,-0.063,-0.934
15:07.6,0.359,-0.035,-0.93
15:07.6,0.418,-0.027,-0.906
15:07.6,0.453,-0.043,-0.902
15:07.7,0.441,-0.051,-0.91
15:07.7,0.418,-0.055,-0.91
15:07.7,0.402,-0.039,-0.914
15:07.8,0.414,-0.039,-0.91
15:07.8,0.449,-0.055,-0.902
15:07.8,0.445,-0.055,-0.906
15:07.9,0.43,-0.055,-0.91
15:07.9,0.414,-0.039,-0.902
15:07.9,0.43,-0.043,-0.902
15:08.0,0.406,-0.066,-0.957
15:08.0,0.367,-0.043,-0.938
15:08.0,0.371,-0.043,-0.918
15:08.1,0.398,-0.035,-0.922
15:08.1,0.426,-0.039,-0.918
15:08.1,0.434,-0.051,-0.91
15:08.2,0.457,-0.055,-0.898
15:08.2,0.449,-0.051,-0.902
15:08.2,0.41,-0.035,-0.91
15:08.3,0.41,-0.059,-0.918
15:08.3,0.398,-0.063,-0.918
15:08.3,0.375,-0.043,-0.93
15:08.4,0.387,-0.035,-0.922
15:08.4,0.445,-0.035,-0.906
15:08.4,0.477,-0.035,-0.891
15:08.5,0.465,-0.051,-0.902
15:08.5,0.391,-0.043,-0.926
15:08.5,0.344,-0.047,-0.938
15:08.6,0.363,-0.059,-0.93
15:08.6,0.391,-0.051,-0.918
15:08.6,0.398,-0.051,-0.918
15:08.7,0.418,-0.043,-0.914
15:08.7,0.426,-0.051,-0.91
15:08.7,0.41,-0.043,-0.918
15:08.8,0.406,-0.035,-0.91
15:08.8,0.418,-0.051,-0.918
15:08.8,0.398,-0.051,-0.918
15:08.9,0.383,-0.047,-0.922
15:08.9,0.379,-0.047,-0.922
15:08.9,0.395,-0.047,-0.918
15:09.0,0.398,-0.051,-0.914
15:09.0,0.402,-0.051,-0.922
15:09.0,0.41,-0.043,-0.918
15:09.1,0.414,-0.035,-0.914
15:09.1,0.414,-0.039,-0.914
15:09.1,0.406,-0.031,-0.914
15:09.2,0.426,-0.039,-0.906
15:09.2,0.461,-0.059,-0.902
15:09.2,0.441,-0.055,-0.91
15:09.3,0.383,-0.043,-0.926
15:09.3,0.336,-0.043,-0.934
15:09.3,0.367,-0.055,-0.926
15:09.4,0.441,-0.051,-0.91
15:09.4,0.453,-0.055,-0.906
15:09.4,0.418,-0.039,-0.914
15:09.5,0.395,-0.035,-0.914
15:09.5,0.422,-0.031,-0.914
15:09.5,0.445,-0.043,-0.914
15:09.6,0.438,-0.047,-0.91
15:09.6,0.426,-0.047,-0.918
15:09.6,0.41,-0.051,-0.914
15:09.7,0.387,-0.035,-0.922
15:09.7,0.387,-0.043,-0.918
15:09.7,0.402,-0.059,-0.918
15:09.8,0.422,-0.055,-0.914
15:09.8,0.418,-0.047,-0.914
15:09.8,0.406,-0.035,-0.914
15:09.9,0.438,-0.039,-0.91
15:09.9,0.449,-0.035,-0.902
15:09.9,0.434,-0.047,-0.906
15:10.0,0.43,-0.055,-0.914
15:10.0,0.422,-0.031,-0.914
15:10.0,0.391,-0.039,-0.918
15:10.1,0.375,-0.043,-0.918
15:10.1,0.406,-0.051,-0.918
15:10.1,0.434,-0.047,-0.906
15:10.2,0.438,-0.051,-0.906
15:10.2,0.426,-0.039,-0.91
15:10.2,0.41,-0.043,-0.914
15:10.3,0.406,-0.047,-0.914
15:10.3,0.418,-0.047,-0.918
15:10.3,0.418,-0.051,-0.91
15:10.4,0.402,-0.047,-0.922
15:10.4,0.395,-0.043,-0.918
15:10.4,0.402,-0.047,-0.918
15:10.5,0.402,-0.051,-0.914
15:10.5,0.414,-0.039,-0.918
15:10.5,0.426,-0.043,-0.914
15:10.6,0.422,-0.039,-0.914
15:10.6,0.414,-0.047,-0.914
15:10.6,0.418,-0.043,-0.914
15:10.7,0.418,-0.039,-0.914
15:10.7,0.41,-0.043,-0.914
15:10.7,0.418,-0.051,-0.914
15:10.8,0.422,-0.047,-0.914
15:10.8,0.418,-0.047,-0.914
15:10.8,0.41,-0.043,-0.914
15:10.9,0.422,-0.043,-0.914
15:10.9,0.43,-0.047,-0.914
15:10.9,0.43,-0.047,-0.91
15:11.0,0.418,-0.047,-0.914
15:11.0,0.422,-0.039,-0.918
15:11.0,0.406,-0.047,-0.914
15:11.1,0.418,-0.039,-0.914
15:11.1,0.422,-0.039,-0.914
15:11.1,0.418,-0.047,-0.914
15:11.2,0.414,-0.043,-0.918
15:11.2,0.41,-0.047,-0.914
15:11.2,0.414,-0.039,-0.914
15:11.3,0.422,-0.043,-0.914
15:11.3,0.422,-0.047,-0.91
15:11.3,0.418,-0.051,-0.914
15:11.4,0.41,-0.051,-0.918
15:11.4,0.41,-0.039,-0.914
15:11.4,0.43,-0.043,-0.914
15:11.5,0.422,-0.047,-0.914
15:11.5,0.414,-0.035,-0.918
15:11.5,0.414,-0.035,-0.914
15:11.6,0.422,-0.051,-0.91
15:11.6,0.426,-0.051,-0.914
15:11.6,0.41,-0.039,-0.914
15:11.7,0.418,-0.043,-0.914
15:11.7,0.414,-0.043,-0.914
15:11.7,0.422,-0.047,-0.906
15:11.8,0.426,-0.051,-0.914
15:11.8,0.418,-0.047,-0.91
15:11.8,0.406,-0.039,-0.914
15:11.9,0.414,-0.039,-0.914
15:11.9,0.43,-0.039,-0.914
15:11.9,0.418,-0.047,-0.914
15:12.0,0.426,-0.051,-0.914
15:12.0,0.426,-0.031,-0.914
15:12.0,0.426,-0.035,-0.91
15:12.1,0.426,-0.043,-0.91
15:12.1,0.418,-0.043,-0.91
15:12.1,0.422,-0.047,-0.906
15:12.2,0.426,-0.047,-0.91
15:12.2,0.422,-0.043,-0.91
15:12.2,0.422,-0.047,-0.914
15:12.3,0.418,-0.039,-0.914
15:12.3,0.418,-0.043,-0.914
15:12.3,0.434,-0.043,-0.91
15:12.4,0.426,-0.047,-0.914
15:12.4,0.426,-0.055,-0.914
15:12.4,0.426,-0.043,-0.914
15:12.5,0.43,-0.035,-0.91
15:12.5,0.43,-0.027,-0.91
15:12.5,0.414,-0.047,-0.914
15:12.6,0.426,-0.043,-0.914
15:12.6,0.426,-0.051,-0.914
15:12.6,0.426,-0.047,-0.914
15:12.7,0.414,-0.043,-0.914
15:12.7,0.418,-0.047,-0.906
15:12.7,0.426,-0.043,-0.914
15:12.8,0.426,-0.051,-0.91
15:12.8,0.41,-0.043,-0.914
15:12.8,0.41,-0.047,-0.918
15:12.9,0.426,-0.039,-0.91
15:12.9,0.43,-0.051,-0.914
15:12.9,0.422,-0.043,-0.91
15:13.0,0.422,-0.047,-0.914
15:13.0,0.426,-0.031,-0.91
15:13.0,0.414,-0.047,-0.914
15:13.1,0.418,-0.051,-0.914
15:13.1,0.426,-0.043,-0.91
15:13.1,0.418,-0.043,-0.914
15:13.2,0.414,-0.039,-0.918
15:13.2,0.418,-0.047,-0.914
15:13.2,0.426,-0.047,-0.914
15:13.3,0.426,-0.043,-0.91
15:13.3,0.422,-0.039,-0.914
15:13.3,0.418,-0.047,-0.914
15:13.4,0.406,-0.051,-0.918
15:13.4,0.395,-0.047,-0.918
15:13.4,0.387,-0.051,-0.918
15:13.5,0.406,-0.039,-0.914
15:13.5,0.457,-0.031,-0.898
15:13.5,0.457,-0.043,-0.902
15:13.6,0.406,-0.051,-0.914
15:13.6,0.375,-0.039,-0.922
15:13.6,0.418,-0.035,-0.914
15:13.7,0.445,-0.047,-0.902
15:13.7,0.422,-0.051,-0.914
15:13.7,0.391,-0.047,-0.918
15:13.8,0.418,-0.031,-0.914
15:13.8,0.461,-0.035,-0.895
15:13.8,0.457,-0.043,-0.902
15:13.9,0.406,-0.051,-0.918
15:13.9,0.379,-0.047,-0.922
15:13.9,0.387,-0.059,-0.93
15:14.0,0.387,-0.055,-0.922
15:14.0,0.402,-0.027,-0.918
15:14.0,0.453,-0.023,-0.906
15:14.1,0.469,-0.043,-0.898
15:14.1,0.449,-0.051,-0.906
15:14.1,0.402,-0.055,-0.918
15:14.2,0.328,-0.059,-0.941
15:14.2,0.32,-0.043,-0.938
15:14.2,0.426,-0.027,-0.91
15:14.3,0.516,-0.047,-0.887
15:14.3,0.461,-0.055,-0.895
15:14.3,0.355,-0.055,-0.922
15:14.4,0.328,-0.023,-0.934
15:14.4,0.434,-0.035,-0.902
15:14.4,0.48,-0.055,-0.895
15:14.5,0.438,-0.051,-0.906
15:14.5,0.383,-0.023,-0.926
15:14.5,0.395,-0.031,-0.922
15:14.6,0.445,-0.035,-0.91
15:14.6,0.426,-0.051,-0.91
15:14.6,0.379,-0.051,-0.914
15:14.7,0.391,-0.051,-0.918
15:14.7,0.43,-0.035,-0.91
15:14.7,0.43,-0.039,-0.914
15:14.8,0.406,-0.051,-0.914
15:14.8,0.391,-0.047,-0.922
15:14.8,0.402,-0.039,-0.918
15:14.9,0.43,-0.031,-0.918
15:14.9,0.422,-0.043,-0.914
15:14.9,0.414,-0.059,-0.918
15:15.0,0.395,-0.047,-0.918
15:15.0,0.414,-0.027,-0.914
15:15.0,0.422,-0.035,-0.914
15:15.1,0.398,-0.047,-0.918
15:15.1,0.395,-0.059,-0.922
15:15.1,0.391,-0.055,-0.922
15:15.2,0.398,-0.043,-0.918
15:15.2,0.43,-0.035,-0.914
15:15.2,0.43,-0.043,-0.91
15:15.3,0.41,-0.047,-0.914
15:15.3,0.391,-0.055,-0.918
15:15.3,0.387,-0.051,-0.922
15:15.4,0.402,-0.043,-0.914
15:15.4,0.406,-0.047,-0.918
15:15.4,0.406,-0.051,-0.922
15:15.5,0.398,-0.043,-0.918
15:15.5,0.41,-0.031,-0.918
15:15.5,0.43,-0.043,-0.914
15:15.6,0.422,-0.043,-0.914
15:15.6,0.41,-0.051,-0.918
15:15.6,0.395,-0.055,-0.918
15:15.7,0.371,-0.051,-0.926
15:15.7,0.391,-0.043,-0.918
15:15.7,0.422,-0.039,-0.918
15:15.8,0.422,-0.051,-0.91
15:15.8,0.402,-0.055,-0.914
15:15.8,0.387,-0.051,-0.922
15:15.9,0.379,-0.039,-0.922
15:15.9,0.406,-0.043,-0.918
15:15.9,0.43,-0.043,-0.914
15:16.0,0.418,-0.055,-0.918
15:16.0,0.395,-0.039,-0.918
15:16.0,0.387,-0.043,-0.922
15:16.1,0.395,-0.031,-0.918
15:16.1,0.406,-0.043,-0.914
15:16.1,0.43,-0.051,-0.918
15:16.2,0.43,-0.051,-0.914
15:16.2,0.41,-0.055,-0.918
15:16.2,0.379,-0.055,-0.922
15:16.3,0.359,-0.047,-0.926
15:16.3,0.387,-0.055,-0.918
15:16.3,0.422,-0.047,-0.914
15:16.4,0.438,-0.039,-0.91
15:16.4,0.418,-0.043,-0.918
15:16.4,0.387,-0.043,-0.926
15:16.5,0.375,-0.047,-0.926
15:16.5,0.395,-0.039,-0.922
15:16.5,0.43,-0.039,-0.91
15:16.6,0.43,-0.039,-0.914
15:16.6,0.402,-0.051,-0.918
15:16.6,0.387,-0.051,-0.922
15:16.7,0.371,-0.043,-0.926
15:16.7,0.41,-0.043,-0.918
15:16.7,0.434,-0.043,-0.914
15:16.8,0.426,-0.047,-0.91
15:16.8,0.398,-0.043,-0.918
15:16.8,0.395,-0.047,-0.922
15:16.9,0.398,-0.047,-0.914
15:16.9,0.402,-0.051,-0.918
15:16.9,0.402,-0.047,-0.918
15:17.0,0.406,-0.039,-0.922
15:17.0,0.406,-0.039,-0.914
15:17.0,0.406,-0.051,-0.918
15:17.1,0.41,-0.051,-0.914
15:17.1,0.402,-0.047,-0.914
15:17.1,0.395,-0.047,-0.918
15:17.2,0.395,-0.047,-0.918
15:17.2,0.41,-0.047,-0.918
15:17.2,0.41,-0.043,-0.91
15:17.3,0.41,-0.043,-0.914
15:17.3,0.418,-0.047,-0.914
15:17.3,0.414,-0.047,-0.918
15:17.4,0.391,-0.051,-0.918
15:17.4,0.398,-0.047,-0.914
15:17.4,0.426,-0.043,-0.914
15:17.5,0.418,-0.047,-0.91
15:17.5,0.41,-0.043,-0.918
15:17.5,0.395,-0.043,-0.918
15:17.6,0.398,-0.043,-0.918
15:17.6,0.398,-0.051,-0.918
15:17.6,0.402,-0.047,-0.914
15:17.7,0.402,-0.047,-0.91
15:17.7,0.406,-0.051,-0.914
15:17.7,0.41,-0.051,-0.922
15:17.8,0.398,-0.047,-0.922
15:17.8,0.395,-0.043,-0.918
15:17.8,0.41,-0.047,-0.914
15:17.9,0.422,-0.055,-0.918
15:17.9,0.41,-0.051,-0.914
15:17.9,0.402,-0.043,-0.918
15:18.0,0.414,-0.043,-0.914
15:18.0,0.414,-0.039,-0.922
15:18.0,0.41,-0.051,-0.918
15:18.1,0.398,-0.043,-0.914
15:18.1,0.402,-0.051,-0.918
15:18.1,0.402,-0.051,-0.918
15:18.2,0.398,-0.043,-0.922
15:18.2,0.406,-0.051,-0.918
15:18.2,0.402,-0.047,-0.914
15:18.3,0.402,-0.039,-0.918
15:18.3,0.398,-0.047,-0.918
15:18.3,0.414,-0.047,-0.914
15:18.4,0.418,-0.051,-0.914
15:18.4,0.402,-0.051,-0.918
15:18.4,0.387,-0.051,-0.922
15:18.5,0.395,-0.043,-0.918
15:18.5,0.414,-0.039,-0.922
15:18.5,0.41,-0.055,-0.914
15:18.6,0.398,-0.051,-0.918
15:18.6,0.395,-0.043,-0.922
15:18.6,0.398,-0.051,-0.918
15:18.7,0.398,-0.051,-0.918
15:18.7,0.402,-0.055,-0.918
15:18.7,0.395,-0.051,-0.918
15:18.8,0.395,-0.043,-0.918
15:18.8,0.406,-0.051,-0.918
15:18.8,0.398,-0.051,-0.918
15:18.9,0.391,-0.043,-0.922
15:18.9,0.395,-0.047,-0.918
15:18.9,0.398,-0.051,-0.918
15:19.0,0.402,-0.051,-0.918
15:19.0,0.402,-0.035,-0.914
15:19.0,0.395,-0.047,-0.922
15:19.1,0.402,-0.047,-0.918
15:19.1,0.41,-0.047,-0.918
15:19.1,0.395,-0.047,-0.922
15:19.2,0.395,-0.051,-0.922
15:19.2,0.398,-0.051,-0.922
15:19.2,0.41,-0.051,-0.922
15:19.3,0.402,-0.043,-0.918
15:19.3,0.395,-0.043,-0.918
15:19.3,0.41,-0.051,-0.914
15:19.4,0.391,-0.043,-0.922
15:19.4,0.402,-0.051,-0.918
15:19.4,0.414,-0.055,-0.918
15:19.5,0.406,-0.043,-0.914
15:19.5,0.398,-0.035,-0.922
15:19.5,0.395,-0.043,-0.922
15:19.6,0.402,-0.051,-0.918
15:19.6,0.406,-0.047,-0.918
15:19.6,0.391,-0.051,-0.922
15:19.7,0.398,-0.051,-0.918
15:19.7,0.406,-0.043,-0.914
15:19.7,0.402,-0.051,-0.918
15:19.8,0.395,-0.051,-0.918
15:19.8,0.391,-0.043,-0.918
15:19.8,0.41,-0.047,-0.922
15:19.9,0.414,-0.047,-0.918
15:19.9,0.395,-0.043,-0.922
15:19.9,0.391,-0.039,-0.918
15:20.0,0.414,-0.039,-0.914
15:20.0,0.426,-0.031,-0.914
15:20.0,0.406,-0.039,-0.914
15:20.1,0.395,-0.043,-0.918
15:20.1,0.406,-0.043,-0.918
15:20.1,0.414,-0.047,-0.914
15:20.2,0.402,-0.043,-0.918
15:20.2,0.395,-0.039,-0.918
15:20.2,0.414,-0.043,-0.914
15:20.3,0.406,-0.047,-0.918
15:20.3,0.387,-0.039,-0.918
15:20.3,0.395,-0.039,-0.914
15:20.4,0.414,-0.043,-0.918
15:20.4,0.41,-0.051,-0.914
15:20.4,0.391,-0.055,-0.922
15:20.5,0.379,-0.043,-0.922
15:20.5,0.398,-0.031,-0.922
15:20.5,0.414,-0.039,-0.918
15:20.6,0.422,-0.043,-0.914
15:20.6,0.383,-0.047,-0.93
15:20.6,0.383,-0.043,-0.922
15:20.7,0.395,-0.047,-0.918
15:20.7,0.41,-0.047,-0.918
15:20.7,0.395,-0.051,-0.926
15:20.8,0.379,-0.051,-0.93
15:20.8,0.367,-0.039,-0.93
15:20.8,0.402,-0.047,-0.918
15:20.9,0.41,-0.051,-0.914
15:20.9,0.395,-0.051,-0.926
15:20.9,0.363,-0.043,-0.93
15:21.0,0.379,-0.047,-0.926
15:21.0,0.414,-0.031,-0.914
15:21.0,0.406,-0.047,-0.918
15:21.1,0.375,-0.051,-0.93
15:21.1,0.375,-0.043,-0.922
15:21.1,0.41,-0.043,-0.918
15:21.2,0.406,-0.047,-0.918
15:21.2,0.379,-0.051,-0.926
15:21.2,0.383,-0.051,-0.926
15:21.3,0.391,-0.043,-0.922
15:21.3,0.398,-0.039,-0.918
15:21.3,0.402,-0.047,-0.918
15:21.4,0.387,-0.051,-0.926
15:21.4,0.375,-0.047,-0.93
15:21.4,0.391,-0.039,-0.922
15:21.5,0.406,-0.039,-0.918
15:21.5,0.391,-0.039,-0.922
15:21.5,0.367,-0.051,-0.934
15:21.6,0.387,-0.051,-0.926
15:21.6,0.406,-0.047,-0.918
15:21.6,0.406,-0.043,-0.918
15:21.7,0.383,-0.043,-0.922
15:21.7,0.371,-0.055,-0.926
15:21.7,0.375,-0.051,-0.93
15:21.8,0.395,-0.043,-0.918
15:21.8,0.426,-0.043,-0.91
15:21.8,0.422,-0.035,-0.914
15:21.9,0.414,-0.043,-0.914
15:21.9,0.402,-0.047,-0.918
15:21.9,0.402,-0.047,-0.918
15:22.0,0.406,-0.043,-0.914
15:22.0,0.406,-0.031,-0.918
15:22.0,0.41,-0.035,-0.91
15:22.1,0.414,-0.047,-0.914
15:22.1,0.367,-0.047,-0.93
15:22.1,0.344,-0.055,-0.93
15:22.2,0.406,-0.047,-0.914
15:22.2,0.469,-0.055,-0.895
15:22.2,0.453,-0.055,-0.902
15:22.3,0.418,-0.047,-0.914
15:22.3,0.387,-0.031,-0.918
15:22.3,0.395,-0.051,-0.922
15:22.4,0.402,-0.051,-0.918
15:22.4,0.406,-0.051,-0.918
15:22.4,0.41,-0.051,-0.918
15:22.5,0.406,-0.047,-0.918
15:22.5,0.391,-0.039,-0.926
15:22.5,0.395,-0.047,-0.918
15:22.6,0.438,-0.047,-0.906
15:22.6,0.418,-0.055,-0.914
15:22.6,0.379,-0.051,-0.93
15:22.7,0.391,-0.043,-0.918
15:22.7,0.426,-0.047,-0.906
15:22.7,0.43,-0.055,-0.914
15:22.8,0.398,-0.051,-0.914
15:22.8,0.383,-0.047,-0.922
15:22.8,0.402,-0.039,-0.922
15:22.9,0.43,-0.035,-0.914
15:22.9,0.418,-0.047,-0.914
15:22.9,0.391,-0.043,-0.914
15:23.0,0.426,-0.051,-0.91
15:23.0,0.445,-0.035,-0.906
15:23.0,0.445,-0.035,-0.902
15:23.1,0.434,-0.031,-0.91
15:23.1,0.414,-0.043,-0.914
15:23.1,0.414,-0.043,-0.914
15:23.2,0.43,-0.039,-0.906
15:23.2,0.434,-0.043,-0.906
15:23.2,0.441,-0.039,-0.906
15:23.3,0.434,-0.055,-0.914
15:23.3,0.41,-0.035,-0.914
15:23.3,0.422,-0.027,-0.91
15:23.4,0.449,-0.047,-0.902
15:23.4,0.434,-0.055,-0.906
15:23.4,0.43,-0.055,-0.91
15:23.5,0.41,-0.031,-0.914
15:23.5,0.426,-0.027,-0.91
