Accelerometer X,Accelerometer Y,Accelerometer Z,Time(s)
-0.133,0.469,-0.922,0.011
-0.141,0.445,-0.91,0.022
-0.133,0.441,-0.914,0.033
-0.137,0.438,-0.914,0.044
-0.137,0.441,-0.906,0.055
-0.137,0.441,-0.906,0.066
-0.148,0.441,-0.906,0.077
-0.148,0.441,-0.906,0.088
-0.156,0.441,-0.902,0.099
-0.164,0.441,-0.902,0.11
-0.168,0.441,-0.906,0.121
-0.16,0.438,-0.906,0.132
-0.16,0.441,-0.91,0.143
-0.156,0.441,-0.906,0.154
-0.152,0.438,-0.906,0.165
-0.156,0.441,-0.902,0.176
-0.145,0.434,-0.906,0.187
-0.141,0.438,-0.902,0.198
-0.145,0.438,-0.902,0.209
-0.137,0.438,-0.902,0.22
-0.145,0.438,-0.902,0.231
-0.152,0.438,-0.902,0.242
-0.152,0.438,-0.902,0.253
-0.152,0.438,-0.906,0.264
-0.156,0.441,-0.906,0.275
-0.152,0.438,-0.902,0.286
-0.148,0.438,-0.902,0.297
-0.148,0.434,-0.906,0.308
-0.152,0.434,-0.906,0.319
-0.152,0.438,-0.902,0.33
-0.156,0.438,-0.902,0.341
-0.156,0.438,-0.906,0.352
-0.156,0.441,-0.902,0.363
-0.164,0.438,-0.906,0.374
-0.164,0.438,-0.906,0.385
-0.164,0.441,-0.902,0.396
-0.16,0.441,-0.902,0.407
-0.168,0.438,-0.902,0.418
-0.164,0.438,-0.902,0.429
-0.164,0.441,-0.906,0.44
-0.16,0.438,-0.906,0.451
-0.156,0.438,-0.91,0.462
-0.156,0.43,-0.906,0.473
-0.156,0.434,-0.906,0.484
-0.156,0.438,-0.902,0.495
-0.152,0.449,-0.902,0.506
-0.152,0.441,-0.902,0.517
-0.152,0.441,-0.906,0.528
-0.16,0.438,-0.91,0.539
-0.16,0.438,-0.91,0.55
-0.16,0.438,-0.91,0.561
-0.16,0.438,-0.906,0.572
-0.16,0.441,-0.902,0.583
-0.156,0.438,-0.902,0.594
-0.164,0.438,-0.902,0.605
-0.164,0.441,-0.906,0.616
-0.16,0.438,-0.906,0.627
-0.16,0.438,-0.902,0.638
-0.164,0.438,-0.902,0.649
-0.164,0.438,-0.902,0.66
-0.164,0.438,-0.902,0.671
-0.156,0.434,-0.906,0.682
-0.152,0.434,-0.91,0.693
-0.148,0.434,-0.906,0.704
-0.152,0.434,-0.902,0.715
-0.152,0.434,-0.902,0.726
-0.156,0.438,-0.902,0.737
-0.16,0.434,-0.902,0.748
-0.16,0.434,-0.902,0.759
-0.164,0.438,-0.902,0.77
-0.168,0.438,-0.906,0.781
-0.172,0.434,-0.902,0.792
-0.172,0.43,-0.902,0.803
-0.168,0.434,-0.906,0.814
-0.168,0.434,-0.902,0.825
-0.168,0.434,-0.902,0.836
-0.16,0.43,-0.902,0.847
-0.152,0.426,-0.906,0.858
-0.156,0.434,-0.902,0.869
-0.152,0.438,-0.906,0.88
-0.152,0.438,-0.906,0.891
-0.156,0.434,-0.91,0.902
-0.164,0.438,-0.906,0.913
-0.168,0.438,-0.906,0.924
-0.168,0.438,-0.906,0.935
-0.168,0.438,-0.902,0.946
-0.168,0.438,-0.902,0.957
-0.164,0.43,-0.902,0.968
-0.156,0.434,-0.906,0.979
-0.156,0.434,-0.906,0.99
-0.156,0.449,-0.91,1.001
-0.164,0.438,-0.906,1.012
-0.164,0.438,-0.906,1.023
-0.168,0.438,-0.91,1.034
-0.168,0.438,-0.91,1.045
-0.172,0.438,-0.906,1.056
-0.168,0.434,-0.906,1.067
-0.172,0.438,-0.902,1.078
-0.168,0.434,-0.902,1.089
-0.168,0.434,-0.902,1.1
-0.164,0.438,-0.902,1.111
-0.16,0.434,-0.902,1.122
-0.16,0.434,-0.906,1.133
-0.16,0.434,-0.918,1.144
-0.16,0.434,-0.91,1.155
-0.156,0.43,-0.906,1.166
-0.156,0.434,-0.906,1.177
-0.16,0.438,-0.902,1.188
-0.164,0.434,-0.902,1.199
-0.164,0.434,-0.902,1.21
-0.168,0.438,-0.902,1.221
-0.168,0.434,-0.906,1.232
-0.168,0.434,-0.906,1.243
-0.164,0.438,-0.906,1.254
-0.164,0.438,-0.906,1.265
-0.168,0.438,-0.906,1.276
-0.168,0.438,-0.902,1.287
-0.168,0.434,-0.902,1.298
-0.16,0.434,-0.906,1.309
-0.164,0.434,-0.906,1.32
-0.16,0.438,-0.902,1.331
-0.168,0.438,-0.898,1.342
-0.164,0.434,-0.902,1.353
-0.168,0.438,-0.906,1.364
-0.16,0.43,-0.906,1.375
-0.16,0.434,-0.91,1.386
-0.152,0.438,-0.91,1.397
-0.152,0.441,-0.91,1.408
-0.156,0.438,-0.906,1.419
-0.164,0.434,-0.902,1.43
-0.168,0.438,-0.906,1.441
-0.168,0.438,-0.902,1.452
-0.172,0.434,-0.906,1.463
-0.172,0.434,-0.91,1.474
-0.168,0.434,-0.902,1.485
-0.16,0.441,-0.906,1.496
-0.164,0.438,-0.902,1.507
-0.164,0.434,-0.902,1.518
-0.168,0.434,-0.902,1.529
-0.164,0.438,-0.902,1.54
-0.164,0.438,-0.906,1.551
-0.156,0.438,-0.906,1.562
-0.156,0.438,-0.91,1.573
-0.156,0.434,-0.91,1.584
-0.156,0.434,-0.91,1.595
-0.164,0.434,-0.902,1.606
-0.16,0.434,-0.902,1.617
-0.16,0.43,-0.902,1.628
-0.156,0.43,-0.902,1.639
-0.156,0.438,-0.906,1.65
-0.156,0.434,-0.902,1.661
-0.156,0.438,-0.902,1.672
-0.156,0.438,-0.906,1.683
-0.156,0.438,-0.91,1.694
-0.156,0.438,-0.91,1.705
-0.164,0.438,-0.91,1.716
-0.168,0.438,-0.91,1.727
-0.16,0.438,-0.91,1.738
-0.156,0.434,-0.91,1.749
-0.16,0.438,-0.906,1.76
-0.168,0.438,-0.902,1.771
-0.168,0.438,-0.902,1.782
-0.164,0.434,-0.906,1.793
-0.168,0.438,-0.902,1.804
-0.164,0.434,-0.902,1.815
-0.156,0.438,-0.906,1.826
-0.156,0.438,-0.906,1.837
-0.16,0.438,-0.906,1.848
-0.148,0.434,-0.902,1.859
-0.152,0.438,-0.902,1.87
-0.145,0.434,-0.902,1.881
-0.152,0.438,-0.906,1.892
-0.152,0.434,-0.902,1.903
-0.156,0.438,-0.902,1.914
-0.152,0.438,-0.906,1.925
-0.152,0.438,-0.906,1.936
-0.152,0.441,-0.906,1.947
-0.156,0.441,-0.906,1.958
-0.152,0.441,-0.906,1.969
-0.152,0.441,-0.902,1.98
-0.156,0.449,-0.902,1.991
-0.152,0.438,-0.902,2.002
-0.145,0.438,-0.906,2.013
-0.152,0.438,-0.906,2.024
-0.152,0.438,-0.906,2.035
-0.156,0.438,-0.906,2.046
-0.152,0.438,-0.902,2.057
-0.148,0.438,-0.902,2.068
-0.145,0.438,-0.902,2.079
-0.141,0.441,-0.898,2.09
-0.141,0.441,-0.898,2.101
-0.148,0.441,-0.902,2.112
-0.152,0.441,-0.906,2.123
-0.148,0.434,-0.918,2.134
-0.141,0.438,-0.918,2.145
-0.137,0.438,-0.914,2.156
-0.137,0.441,-0.91,2.167
-0.141,0.441,-0.91,2.178
-0.145,0.438,-0.91,2.189
-0.148,0.441,-0.902,2.2
-0.156,0.441,-0.902,2.211
-0.16,0.445,-0.902,2.222
-0.16,0.441,-0.902,2.233
-0.152,0.441,-0.902,2.244
-0.156,0.441,-0.902,2.255
-0.156,0.441,-0.902,2.266
-0.148,0.441,-0.902,2.277
-0.152,0.438,-0.902,2.288
-0.156,0.438,-0.902,2.299
-0.152,0.441,-0.906,2.31
-0.145,0.438,-0.906,2.321
-0.137,0.438,-0.906,2.332
-0.133,0.438,-0.902,2.343
-0.133,0.441,-0.902,2.354
-0.141,0.441,-0.906,2.365
-0.141,0.441,-0.902,2.376
-0.137,0.441,-0.906,2.387
-0.137,0.441,-0.902,2.398
-0.141,0.441,-0.902,2.409
-0.145,0.441,-0.902,2.42
-0.141,0.441,-0.902,2.431
-0.141,0.441,-0.902,2.442
-0.137,0.441,-0.902,2.453
-0.137,0.441,-0.906,2.464
-0.137,0.441,-0.906,2.475
-0.148,0.449,-0.906,2.486
-0.141,0.445,-0.898,2.497
-0.141,0.441,-0.902,2.508
-0.148,0.445,-0.902,2.519
-0.152,0.445,-0.898,2.53
-0.145,0.445,-0.902,2.541
-0.141,0.441,-0.902,2.552
-0.137,0.441,-0.902,2.563
-0.133,0.438,-0.902,2.574
-0.133,0.441,-0.898,2.585
-0.137,0.441,-0.902,2.596
-0.141,0.441,-0.902,2.607
-0.137,0.438,-0.906,2.618
-0.137,0.441,-0.906,2.629
-0.137,0.438,-0.902,2.64
-0.141,0.441,-0.902,2.651
-0.137,0.441,-0.902,2.662
-0.145,0.441,-0.902,2.673
-0.141,0.445,-0.906,2.684
-0.137,0.441,-0.906,2.695
-0.145,0.441,-0.902,2.706
-0.141,0.441,-0.906,2.717
-0.141,0.441,-0.906,2.728
-0.148,0.441,-0.906,2.739
-0.152,0.445,-0.906,2.75
-0.152,0.441,-0.906,2.761
-0.148,0.441,-0.906,2.772
-0.148,0.441,-0.902,2.783
-0.145,0.441,-0.902,2.794
-0.145,0.441,-0.902,2.805
-0.141,0.441,-0.898,2.816
-0.145,0.441,-0.902,2.827
-0.145,0.441,-0.902,2.838
-0.145,0.441,-0.902,2.849
-0.141,0.441,-0.906,2.86
-0.137,0.438,-0.914,2.871
-0.133,0.43,-0.91,2.882
-0.133,0.434,-0.91,2.893
-0.137,0.438,-0.91,2.904
-0.141,0.438,-0.906,2.915
-0.152,0.438,-0.906,2.926
-0.156,0.441,-0.902,2.937
-0.16,0.441,-0.902,2.948
-0.164,0.441,-0.902,2.959
-0.164,0.441,-0.902,2.97
-0.156,0.453,-0.902,2.981
-0.16,0.438,-0.902,2.992
-0.156,0.438,-0.906,3.003
-0.152,0.434,-0.906,3.014
-0.156,0.434,-0.91,3.025
-0.16,0.441,-0.906,3.036
-0.152,0.441,-0.902,3.047
-0.141,0.441,-0.91,3.058
-0.141,0.441,-0.91,3.069
-0.145,0.438,-0.906,3.08
-0.152,0.438,-0.91,3.091
-0.156,0.438,-0.91,3.102
-0.16,0.441,-0.906,3.113
-0.152,0.441,-0.902,3.124
-0.152,0.438,-0.902,3.135
-0.148,0.438,-0.902,3.146
-0.148,0.438,-0.906,3.157
-0.152,0.438,-0.906,3.168
-0.152,0.438,-0.906,3.179
-0.156,0.43,-0.906,3.19
-0.16,0.438,-0.906,3.201
-0.16,0.438,-0.906,3.212
-0.168,0.438,-0.906,3.223
-0.164,0.438,-0.906,3.234
-0.168,0.438,-0.906,3.245
-0.164,0.43,-0.902,3.256
-0.16,0.426,-0.906,3.267
-0.156,0.43,-0.91,3.278
-0.152,0.434,-0.906,3.289
-0.145,0.434,-0.902,3.3
-0.148,0.438,-0.902,3.311
-0.145,0.434,-0.902,3.322
-0.148,0.438,-0.906,3.333
-0.148,0.434,-0.906,3.344
-0.152,0.434,-0.906,3.355
-0.156,0.438,-0.91,3.366
-0.156,0.438,-0.906,3.377
-0.16,0.434,-0.91,3.388
-0.16,0.434,-0.906,3.399
-0.16,0.438,-0.902,3.41
-0.16,0.438,-0.902,3.421
-0.156,0.438,-0.902,3.432
-0.156,0.438,-0.902,3.443
-0.156,0.43,-0.902,3.454
-0.164,0.43,-0.902,3.465
-0.156,0.43,-0.91,3.476
-0.164,0.426,-0.902,3.487
-0.168,0.43,-0.902,3.498
-0.168,0.43,-0.906,3.509
-0.168,0.438,-0.906,3.52
-0.168,0.438,-0.902,3.531
-0.164,0.438,-0.902,3.542
-0.164,0.438,-0.898,3.553
-0.168,0.438,-0.902,3.564
-0.164,0.434,-0.906,3.575
-0.16,0.426,-0.906,3.586
-0.148,0.426,-0.91,3.597
-0.141,0.426,-0.91,3.608
-0.137,0.426,-0.906,3.619
-0.145,0.43,-0.902,3.63
-0.148,0.434,-0.902,3.641
-0.145,0.438,-0.902,3.652
-0.145,0.438,-0.902,3.663
-0.145,0.441,-0.906,3.674
-0.141,0.438,-0.914,3.685
-0.141,0.441,-0.91,3.696
-0.145,0.441,-0.91,3.707
-0.148,0.441,-0.914,3.718
-0.145,0.438,-0.914,3.729
-0.152,0.438,-0.91,3.74
-0.16,0.434,-0.91,3.751
-0.168,0.434,-0.906,3.762
-0.164,0.43,-0.914,3.773
-0.164,0.422,-0.91,3.784
-0.164,0.43,-0.906,3.795
-0.152,0.438,-0.902,3.806
-0.152,0.441,-0.906,3.817
-0.152,0.441,-0.906,3.828
-0.145,0.438,-0.902,3.839
-0.133,0.438,-0.906,3.85
-0.133,0.434,-0.902,3.861
-0.133,0.43,-0.898,3.872
-0.133,0.426,-0.895,3.883
-0.133,0.426,-0.891,3.894
-0.141,0.434,-0.895,3.905
-0.148,0.43,-0.891,3.916
-0.156,0.43,-0.895,3.927
-0.164,0.438,-0.902,3.938
-0.164,0.438,-0.906,3.949
-0.168,0.441,-0.91,3.96
-0.164,0.449,-0.91,3.971
-0.164,0.449,-0.906,3.982
-0.16,0.449,-0.91,3.993
-0.164,0.449,-0.914,4.004
-0.152,0.445,-0.914,4.015
-0.148,0.441,-0.914,4.026
-0.141,0.441,-0.918,4.037
-0.148,0.441,-0.918,4.048
-0.152,0.438,-0.918,4.059
-0.148,0.434,-0.91,4.07
-0.145,0.43,-0.918,4.081
-0.141,0.426,-0.914,4.092
-0.137,0.422,-0.91,4.103
-0.137,0.422,-0.906,4.114
-0.137,0.418,-0.906,4.125
-0.141,0.422,-0.91,4.136
-0.145,0.414,-0.906,4.147
-0.145,0.41,-0.902,4.158
-0.141,0.418,-0.902,4.169
-0.145,0.426,-0.902,4.18
-0.148,0.43,-0.902,4.191
-0.148,0.438,-0.906,4.202
-0.152,0.434,-0.906,4.213
-0.152,0.438,-0.906,4.224
-0.152,0.438,-0.91,4.235
-0.148,0.438,-0.906,4.246
-0.148,0.441,-0.91,4.257
-0.152,0.438,-0.91,4.268
-0.148,0.438,-0.902,4.279
-0.141,0.438,-0.902,4.29
-0.137,0.438,-0.902,4.301
-0.141,0.438,-0.902,4.312
-0.145,0.441,-0.902,4.323
-0.141,0.438,-0.914,4.334
-0.141,0.434,-0.918,4.345
-0.137,0.438,-0.918,4.356
-0.133,0.438,-0.922,4.367
-0.133,0.434,-0.922,4.378
-0.133,0.438,-0.918,4.389
-0.137,0.434,-0.91,4.4
-0.133,0.438,-0.906,4.411
-0.141,0.438,-0.906,4.422
-0.145,0.441,-0.902,4.433
-0.145,0.438,-0.902,4.444
-0.156,0.441,-0.902,4.455
-0.148,0.449,-0.898,4.466
-0.148,0.438,-0.902,4.477
-0.145,0.434,-0.902,4.488
-0.141,0.434,-0.898,4.499
-0.141,0.434,-0.898,4.51
-0.141,0.434,-0.906,4.521
-0.133,0.43,-0.906,4.532
-0.133,0.438,-0.902,4.543
-0.129,0.438,-0.906,4.554
-0.133,0.438,-0.906,4.565
-0.137,0.434,-0.906,4.576
-0.137,0.438,-0.902,4.587
-0.137,0.434,-0.902,4.598
-0.137,0.434,-0.906,4.609
-0.141,0.438,-0.902,4.62
-0.137,0.438,-0.906,4.631
-0.141,0.441,-0.906,4.642
-0.141,0.441,-0.906,4.653
-0.137,0.441,-0.91,4.664
-0.137,0.441,-0.906,4.675
-0.133,0.441,-0.902,4.686
-0.133,0.441,-0.906,4.697
-0.137,0.438,-0.906,4.708
-0.137,0.438,-0.902,4.719
-0.141,0.438,-0.902,4.73
-0.137,0.441,-0.902,4.741
-0.133,0.441,-0.902,4.752
-0.137,0.445,-0.898,4.763
-0.137,0.441,-0.902,4.774
-0.137,0.438,-0.902,4.785
-0.133,0.438,-0.902,4.796
-0.133,0.438,-0.902,4.807
-0.133,0.438,-0.902,4.818
-0.133,0.441,-0.906,4.829
-0.133,0.441,-0.906,4.84
-0.133,0.441,-0.91,4.851
-0.133,0.434,-0.906,4.862
-0.133,0.438,-0.906,4.873
-0.137,0.441,-0.91,4.884
-0.141,0.441,-0.906,4.895
-0.141,0.438,-0.906,4.906
-0.145,0.438,-0.906,4.917
-0.141,0.441,-0.906,4.928
-0.141,0.445,-0.902,4.939
-0.137,0.441,-0.902,4.95
-0.133,0.449,-0.902,4.961
-0.133,0.441,-0.902,4.972
-0.125,0.441,-0.906,4.983
-0.129,0.441,-0.91,4.994
-0.133,0.441,-0.914,5.005
-0.137,0.441,-0.906,5.016
-0.137,0.441,-0.906,5.027
-0.137,0.449,-0.902,5.038
-0.137,0.445,-0.898,5.049
-0.137,0.445,-0.895,5.06
-0.145,0.441,-0.898,5.071
-0.152,0.441,-0.902,5.082
-0.148,0.441,-0.906,5.093
-0.148,0.441,-0.91,5.104
-0.141,0.441,-0.902,5.115
-0.133,0.441,-0.91,5.126
-0.125,0.445,-0.906,5.137
-0.117,0.441,-0.914,5.148
-0.113,0.445,-0.91,5.159
-0.105,0.445,-0.91,5.17
-0.105,0.445,-0.906,5.181
-0.109,0.441,-0.91,5.192
-0.113,0.438,-0.906,5.203
-0.121,0.438,-0.902,5.214
-0.133,0.434,-0.902,5.225
-0.141,0.434,-0.898,5.236
-0.148,0.438,-0.898,5.247
-0.152,0.438,-0.898,5.258
-0.145,0.438,-0.902,5.269
-0.148,0.441,-0.902,5.28
-0.145,0.441,-0.902,5.291
-0.137,0.445,-0.902,5.302
-0.137,0.445,-0.906,5.313
-0.133,0.441,-0.91,5.324
-0.133,0.445,-0.91,5.335
-0.133,0.441,-0.918,5.346
-0.133,0.441,-0.914,5.357
-0.129,0.441,-0.914,5.368
-0.133,0.441,-0.906,5.379
-0.133,0.441,-0.906,5.39
-0.137,0.434,-0.902,5.401
-0.141,0.434,-0.91,5.412
-0.137,0.438,-0.91,5.423
-0.137,0.434,-0.906,5.434
-0.145,0.438,-0.91,5.445
-0.148,0.449,-0.906,5.456
-0.152,0.441,-0.902,5.467
-0.152,0.441,-0.906,5.478
-0.148,0.438,-0.91,5.489
-0.148,0.438,-0.91,5.5
-0.148,0.438,-0.906,5.511
-0.152,0.438,-0.906,5.522
-0.145,0.438,-0.906,5.533
-0.145,0.438,-0.906,5.544
-0.141,0.438,-0.902,5.555
-0.137,0.438,-0.906,5.566
-0.141,0.438,-0.906,5.577
-0.145,0.438,-0.906,5.588
-0.141,0.438,-0.906,5.599
-0.141,0.438,-0.906,5.61
-0.145,0.438,-0.902,5.621
-0.141,0.434,-0.906,5.632
-0.148,0.438,-0.906,5.643
-0.148,0.438,-0.906,5.654
-0.152,0.43,-0.906,5.665
-0.152,0.434,-0.906,5.676
-0.145,0.43,-0.906,5.687
-0.148,0.434,-0.902,5.698
-0.141,0.438,-0.902,5.709
-0.145,0.438,-0.906,5.72
-0.145,0.441,-0.91,5.731
-0.145,0.441,-0.91,5.742
-0.145,0.438,-0.906,5.753
-0.148,0.438,-0.906,5.764
-0.148,0.438,-0.906,5.775
-0.152,0.434,-0.906,5.786
-0.152,0.434,-0.906,5.797
-0.156,0.438,-0.91,5.808
-0.156,0.434,-0.906,5.819
-0.156,0.434,-0.902,5.83
-0.164,0.434,-0.902,5.841
-0.16,0.434,-0.906,5.852
-0.16,0.434,-0.906,5.863
-0.156,0.438,-0.91,5.874
-0.145,0.434,-0.914,5.885
-0.137,0.43,-0.914,5.896
-0.141,0.43,-0.914,5.907
-0.141,0.43,-0.91,5.918
-0.145,0.434,-0.906,5.929
-0.148,0.434,-0.898,5.94
-0.148,0.449,-0.902,5.951
-0.152,0.434,-0.902,5.962
-0.16,0.438,-0.902,5.973
-0.168,0.43,-0.902,5.984
-0.168,0.43,-0.902,5.995
-0.168,0.43,-0.906,6.006
-0.168,0.434,-0.902,6.017
-0.168,0.43,-0.906,6.028
-0.168,0.434,-0.906,6.039
-0.16,0.441,-0.902,6.05
-0.156,0.441,-0.91,6.061
-0.152,0.438,-0.906,6.072
-0.145,0.434,-0.906,6.083
-0.148,0.438,-0.906,6.094
-0.156,0.438,-0.91,6.105
-0.164,0.438,-0.906,6.116
-0.16,0.438,-0.906,6.127
-0.156,0.434,-0.91,6.138
-0.152,0.426,-0.906,6.149
-0.156,0.434,-0.902,6.16
-0.152,0.43,-0.906,6.171
-0.148,0.434,-0.906,6.182
-0.152,0.438,-0.906,6.193
-0.156,0.438,-0.902,6.204
-0.156,0.438,-0.902,6.215
-0.156,0.438,-0.906,6.226
-0.156,0.438,-0.906,6.237
-0.156,0.43,-0.906,6.248
-0.164,0.43,-0.906,6.259
-0.16,0.43,-0.906,6.27
-0.16,0.43,-0.906,6.281
-0.16,0.426,-0.906,6.292
-0.16,0.43,-0.91,6.303
-0.16,0.438,-0.914,6.314
-0.156,0.438,-0.906,6.325
-0.156,0.434,-0.906,6.336
-0.156,0.43,-0.91,6.347
-0.156,0.434,-0.91,6.358
-0.156,0.43,-0.91,6.369
-0.156,0.43,-0.906,6.38
-0.156,0.43,-0.906,6.391
-0.156,0.434,-0.906,6.402
-0.156,0.438,-0.906,6.413
-0.16,0.434,-0.906,6.424
-0.16,0.43,-0.906,6.435
-0.156,0.445,-0.91,6.446
-0.156,0.438,-0.906,6.457
-0.16,0.434,-0.91,6.468
-0.16,0.43,-0.906,6.479
-0.156,0.43,-0.91,6.49
-0.156,0.434,-0.906,6.501
-0.152,0.43,-0.902,6.512
-0.156,0.43,-0.906,6.523
-0.16,0.426,-0.906,6.534
-0.16,0.434,-0.906,6.545
-0.16,0.434,-0.906,6.556
-0.164,0.434,-0.906,6.567
-0.164,0.434,-0.906,6.578
-0.164,0.43,-0.906,6.589
-0.164,0.43,-0.902,6.6
-0.16,0.43,-0.902,6.611
-0.156,0.434,-0.902,6.622
-0.156,0.434,-0.902,6.633
-0.16,0.434,-0.898,6.644
-0.156,0.438,-0.902,6.655
-0.156,0.438,-0.902,6.666
-0.156,0.434,-0.906,6.677
-0.156,0.43,-0.906,6.688
-0.156,0.434,-0.91,6.699
-0.148,0.43,-0.91,6.71
-0.152,0.438,-0.906,6.721
-0.148,0.438,-0.902,6.732
-0.152,0.438,-0.906,6.743
-0.156,0.434,-0.902,6.754
-0.16,0.43,-0.906,6.765
-0.168,0.43,-0.91,6.776
-0.172,0.438,-0.906,6.787
-0.168,0.434,-0.91,6.798
-0.16,0.438,-0.906,6.809
-0.156,0.43,-0.906,6.82
-0.156,0.434,-0.906,6.831
-0.16,0.434,-0.906,6.842
-0.16,0.434,-0.906,6.853
-0.156,0.434,-0.906,6.864
-0.156,0.438,-0.902,6.875
-0.148,0.438,-0.902,6.886
-0.152,0.434,-0.902,6.897
-0.152,0.434,-0.906,6.908
-0.152,0.438,-0.906,6.919
-0.156,0.434,-0.906,6.93
-0.156,0.445,-0.902,6.941
-0.148,0.434,-0.902,6.952
-0.148,0.434,-0.902,6.963
-0.148,0.43,-0.902,6.974
-0.145,0.43,-0.902,6.985
-0.148,0.434,-0.902,6.996
-0.148,0.434,-0.906,7.007
-0.148,0.438,-0.906,7.018
-0.152,0.438,-0.914,7.029
-0.152,0.438,-0.918,7.04
-0.152,0.434,-0.91,7.051
-0.156,0.438,-0.91,7.062
-0.156,0.43,-0.906,7.073
-0.148,0.426,-0.906,7.084
-0.152,0.434,-0.902,7.095
-0.156,0.434,-0.906,7.106
-0.16,0.438,-0.906,7.117
-0.164,0.438,-0.902,7.128
-0.16,0.438,-0.902,7.139
-0.156,0.43,-0.902,7.15
-0.152,0.434,-0.906,7.161
-0.152,0.43,-0.906,7.172
-0.152,0.434,-0.906,7.183
-0.148,0.438,-0.902,7.194
-0.152,0.438,-0.906,7.205
-0.145,0.438,-0.91,7.216
-0.141,0.434,-0.906,7.227
-0.145,0.438,-0.902,7.238
-0.141,0.438,-0.906,7.249
-0.145,0.441,-0.902,7.26
-0.148,0.441,-0.906,7.271
-0.145,0.438,-0.906,7.282
-0.141,0.438,-0.898,7.293
-0.148,0.441,-0.902,7.304
-0.148,0.434,-0.902,7.315
-0.145,0.434,-0.902,7.326
-0.145,0.43,-0.902,7.337
-0.152,0.434,-0.906,7.348
-0.152,0.438,-0.91,7.359
-0.152,0.434,-0.91,7.37
-0.156,0.43,-0.914,7.381
-0.156,0.434,-0.91,7.392
-0.148,0.438,-0.91,7.403
-0.141,0.438,-0.902,7.414
-0.137,0.438,-0.898,7.425
-0.148,0.449,-0.898,7.436
-0.152,0.441,-0.898,7.447
-0.148,0.441,-0.91,7.458
-0.148,0.438,-0.914,7.469
-0.145,0.434,-0.918,7.48
-0.137,0.438,-0.91,7.491
-0.133,0.438,-0.91,7.502
-0.137,0.438,-0.906,7.513
-0.137,0.438,-0.91,7.524
-0.137,0.438,-0.906,7.535
-0.137,0.441,-0.906,7.546
-0.148,0.441,-0.902,7.557
-0.156,0.445,-0.902,7.568
-0.152,0.441,-0.902,7.579
-0.152,0.441,-0.902,7.59
-0.148,0.438,-0.902,7.601
-0.145,0.438,-0.902,7.612
-0.145,0.438,-0.906,7.623
-0.145,0.438,-0.906,7.634
-0.141,0.438,-0.902,7.645
-0.141,0.434,-0.906,7.656
-0.145,0.441,-0.906,7.667
-0.148,0.438,-0.902,7.678
-0.141,0.441,-0.902,7.689
-0.137,0.441,-0.902,7.7
-0.141,0.441,-0.902,7.711
-0.148,0.441,-0.902,7.722
-0.141,0.441,-0.906,7.733
-0.141,0.441,-0.906,7.744
-0.137,0.441,-0.902,7.755
-0.137,0.441,-0.902,7.766
-0.137,0.441,-0.902,7.777
-0.137,0.441,-0.902,7.788
-0.137,0.434,-0.902,7.799
-0.141,0.438,-0.902,7.81
-0.148,0.441,-0.902,7.821
-0.141,0.438,-0.902,7.832
-0.148,0.441,-0.902,7.843
-0.152,0.441,-0.902,7.854
-0.145,0.438,-0.902,7.865
-0.148,0.441,-0.906,7.876
-0.145,0.441,-0.906,7.887
-0.141,0.438,-0.906,7.898
-0.141,0.438,-0.906,7.909
-0.137,0.438,-0.906,7.92
-0.141,0.449,-0.906,7.931
-0.141,0.441,-0.898,7.942
-0.141,0.441,-0.902,7.953
-0.141,0.438,-0.902,7.964
-0.141,0.441,-0.902,7.975
-0.145,0.438,-0.902,7.986
-0.145,0.438,-0.906,7.997
-0.145,0.441,-0.906,8.008
-0.145,0.438,-0.902,8.019
-0.145,0.441,-0.902,8.03
-0.145,0.441,-0.902,8.041
-0.141,0.438,-0.906,8.052
-0.145,0.438,-0.902,8.063
-0.148,0.438,-0.902,8.074
-0.145,0.434,-0.902,8.085
-0.148,0.434,-0.902,8.096
-0.145,0.434,-0.906,8.107
-0.148,0.438,-0.91,8.118
-0.148,0.434,-0.91,8.129
-0.148,0.434,-0.906,8.14
-0.156,0.426,-0.906,8.151
-0.156,0.434,-0.906,8.162
-0.152,0.434,-0.906,8.173
-0.148,0.438,-0.902,8.184
-0.152,0.438,-0.902,8.195
-0.156,0.438,-0.902,8.206
-0.156,0.43,-0.902,8.217
-0.156,0.434,-0.91,8.228
-0.148,0.43,-0.914,8.239
-0.141,0.434,-0.914,8.25
-0.137,0.438,-0.91,8.261
-0.137,0.434,-0.906,8.272
-0.145,0.438,-0.906,8.283
-0.148,0.438,-0.902,8.294
-0.152,0.438,-0.902,8.305
-0.156,0.438,-0.902,8.316
-0.164,0.438,-0.902,8.327
-0.164,0.438,-0.902,8.338
-0.164,0.438,-0.902,8.349
-0.164,0.441,-0.906,8.36
-0.168,0.438,-0.906,8.371
-0.164,0.438,-0.906,8.382
-0.16,0.438,-0.906,8.393
-0.16,0.438,-0.902,8.404
-0.156,0.438,-0.902,8.415
-0.152,0.449,-0.906,8.426
-0.148,0.441,-0.902,8.437
-0.145,0.441,-0.902,8.448
-0.152,0.441,-0.906,8.459
-0.16,0.438,-0.906,8.47
-0.164,0.434,-0.906,8.481
-0.16,0.438,-0.902,8.492
-0.16,0.438,-0.902,8.503
-0.156,0.438,-0.902,8.514
-0.156,0.438,-0.902,8.525
-0.156,0.438,-0.902,8.536
-0.156,0.438,-0.902,8.547
-0.152,0.438,-0.902,8.558
-0.156,0.434,-0.906,8.569
-0.16,0.434,-0.906,8.58
-0.156,0.438,-0.91,8.591
-0.164,0.438,-0.906,8.602
-0.164,0.434,-0.906,8.613
-0.168,0.434,-0.906,8.624
-0.168,0.438,-0.902,8.635
-0.168,0.438,-0.906,8.646
-0.168,0.438,-0.906,8.657
-0.164,0.434,-0.91,8.668
-0.156,0.43,-0.906,8.679
-0.156,0.43,-0.906,8.69
-0.156,0.43,-0.906,8.701
-0.148,0.434,-0.906,8.712
-0.152,0.438,-0.91,8.723
-0.16,0.438,-0.906,8.734
-0.156,0.438,-0.906,8.745
-0.16,0.434,-0.906,8.756
-0.156,0.434,-0.906,8.767
-0.156,0.43,-0.902,8.778
-0.16,0.43,-0.902,8.789
-0.156,0.43,-0.902,8.8
-0.164,0.434,-0.906,8.811
-0.164,0.434,-0.906,8.822
-0.156,0.434,-0.91,8.833
-0.156,0.43,-0.906,8.844
-0.156,0.43,-0.902,8.855
-0.156,0.426,-0.902,8.866
-0.156,0.43,-0.906,8.877
-0.16,0.434,-0.906,8.888
-0.16,0.434,-0.906,8.899
-0.16,0.438,-0.902,8.91
-0.16,0.445,-0.906,8.921
-0.16,0.43,-0.906,8.932
-0.164,0.43,-0.906,8.943
-0.16,0.434,-0.906,8.954
-0.16,0.434,-0.906,8.965
-0.164,0.434,-0.906,8.976
-0.152,0.434,-0.902,8.987
-0.156,0.438,-0.902,8.998
-0.164,0.441,-0.902,9.009
-0.164,0.434,-0.906,9.02
-0.164,0.43,-0.91,9.031
-0.16,0.43,-0.914,9.042
-0.148,0.43,-0.91,9.053
-0.145,0.43,-0.906,9.064
-0.145,0.434,-0.906,9.075
-0.152,0.43,-0.902,9.086
-0.156,0.434,-0.898,9.097
-0.164,0.434,-0.902,9.108
-0.168,0.43,-0.902,9.119
-0.172,0.434,-0.902,9.13
-0.172,0.426,-0.902,9.141
-0.168,0.426,-0.902,9.152
-0.16,0.426,-0.902,9.163
-0.164,0.434,-0.902,9.174
-0.164,0.43,-0.906,9.185
-0.168,0.43,-0.902,9.196
-0.164,0.434,-0.906,9.207
-0.16,0.434,-0.91,9.218
-0.156,0.438,-0.906,9.229
-0.156,0.434,-0.91,9.24
-0.152,0.438,-0.91,9.251
-0.16,0.438,-0.906,9.262
-0.164,0.438,-0.902,9.273
-0.168,0.434,-0.902,9.284
-0.168,0.43,-0.902,9.295
-0.164,0.434,-0.902,9.306
-0.164,0.434,-0.902,9.317
-0.16,0.434,-0.902,9.328
-0.156,0.434,-0.902,9.339
-0.156,0.434,-0.902,9.35
-0.156,0.434,-0.91,9.361
-0.164,0.438,-0.906,9.372
-0.168,0.438,-0.906,9.383
-0.164,0.438,-0.906,9.394
-0.16,0.426,-0.902,9.405
-0.164,0.434,-0.906,9.416
-0.164,0.434,-0.898,9.427
-0.168,0.438,-0.902,9.438
-0.168,0.438,-0.902,9.449
-0.168,0.438,-0.902,9.46
-0.164,0.438,-0.902,9.471
-0.16,0.43,-0.906,9.482
-0.16,0.434,-0.906,9.493
-0.16,0.43,-0.91,9.504
-0.156,0.43,-0.906,9.515
-0.16,0.43,-0.902,9.526
-0.164,0.434,-0.906,9.537
-0.164,0.438,-0.902,9.548
-0.164,0.438,-0.906,9.559
-0.156,0.43,-0.906,9.57
-0.16,0.43,-0.902,9.581
-0.164,0.434,-0.906,9.592
-0.164,0.43,-0.906,9.603
-0.164,0.426,-0.902,9.614
-0.16,0.426,-0.902,9.625
-0.156,0.434,-0.902,9.636
-0.16,0.434,-0.902,9.647
-0.164,0.438,-0.906,9.658
-0.168,0.434,-0.91,9.669
-0.168,0.434,-0.906,9.68
-0.168,0.434,-0.902,9.691
-0.164,0.434,-0.906,9.702
-0.16,0.434,-0.91,9.713
-0.16,0.434,-0.906,9.724
-0.164,0.43,-0.906,9.735
-0.164,0.43,-0.902,9.746
-0.164,0.434,-0.902,9.757
-0.16,0.434,-0.906,9.768
-0.164,0.438,-0.906,9.779
-0.164,0.438,-0.91,9.79
-0.16,0.438,-0.906,9.801
-0.164,0.434,-0.906,9.812
-0.16,0.43,-0.906,9.823
-0.164,0.43,-0.906,9.834
-0.164,0.434,-0.91,9.845
-0.16,0.438,-0.914,9.856
-0.16,0.438,-0.91,9.867
-0.164,0.438,-0.906,9.878
-0.164,0.438,-0.906,9.889
-0.164,0.438,-0.906,9.9
-0.164,0.445,-0.906,9.911
-0.16,0.434,-0.898,9.922
-0.164,0.438,-0.906,9.933
-0.164,0.438,-0.91,9.944
-0.16,0.434,-0.906,9.955
-0.164,0.43,-0.914,9.966
-0.152,0.43,-0.918,9.977
-0.156,0.438,-0.918,9.988
-0.152,0.438,-0.914,9.999
-0.152,0.434,-0.91,10.01
-0.156,0.438,-0.906,10.021
-0.164,0.438,-0.902,10.032
-0.164,0.434,-0.902,10.043
-0.168,0.434,-0.902,10.054
-0.172,0.43,-0.902,10.065
-0.168,0.43,-0.906,10.076
-0.164,0.43,-0.902,10.087
-0.16,0.434,-0.91,10.098
-0.164,0.434,-0.906,10.109
-0.164,0.43,-0.906,10.12
-0.164,0.434,-0.906,10.131
-0.16,0.438,-0.902,10.142
-0.16,0.438,-0.902,10.153
-0.156,0.438,-0.902,10.164
-0.152,0.434,-0.902,10.175
-0.152,0.434,-0.902,10.186
-0.156,0.438,-0.902,10.197
-0.156,0.434,-0.902,10.208
-0.16,0.43,-0.902,10.219
-0.156,0.43,-0.902,10.23
-0.152,0.438,-0.902,10.241
-0.156,0.434,-0.906,10.252
-0.152,0.438,-0.906,10.263
-0.152,0.438,-0.902,10.274
-0.145,0.438,-0.902,10.285
-0.148,0.438,-0.906,10.296
-0.148,0.434,-0.906,10.307
-0.152,0.434,-0.906,10.318
-0.152,0.434,-0.91,10.329
-0.152,0.434,-0.906,10.34
-0.156,0.438,-0.906,10.351
-0.152,0.438,-0.902,10.362
-0.156,0.438,-0.902,10.373
-0.16,0.438,-0.906,10.384
-0.16,0.438,-0.914,10.395
-0.152,0.445,-0.906,10.406
-0.156,0.434,-0.902,10.417
-0.152,0.438,-0.906,10.428
-0.145,0.438,-0.906,10.439
-0.145,0.438,-0.902,10.45
-0.148,0.438,-0.906,10.461
-0.145,0.438,-0.902,10.472
-0.141,0.441,-0.902,10.483
-0.137,0.438,-0.902,10.494
-0.145,0.441,-0.902,10.505
-0.148,0.438,-0.902,10.516
-0.145,0.438,-0.902,10.527
-0.145,0.441,-0.902,10.538
-0.141,0.438,-0.902,10.549
-0.145,0.438,-0.902,10.56
-0.145,0.441,-0.91,10.571
-0.148,0.441,-0.91,10.582
-0.145,0.441,-0.906,10.593
-0.141,0.438,-0.906,10.604
-0.141,0.438,-0.906,10.615
-0.148,0.438,-0.906,10.626
-0.148,0.441,-0.91,10.637
-0.145,0.438,-0.91,10.648
-0.141,0.438,-0.91,10.659
-0.141,0.438,-0.902,10.67
-0.141,0.441,-0.902,10.681
-0.145,0.441,-0.902,10.692
-0.148,0.441,-0.902,10.703
-0.141,0.441,-0.906,10.714
-0.137,0.441,-0.902,10.725
-0.137,0.441,-0.902,10.736
-0.137,0.441,-0.895,10.747
-0.141,0.445,-0.898,10.758
-0.145,0.445,-0.898,10.769
-0.145,0.441,-0.906,10.78
-0.141,0.441,-0.906,10.791
-0.141,0.441,-0.91,10.802
-0.137,0.441,-0.91,10.813
-0.133,0.438,-0.914,10.824
-0.129,0.438,-0.906,10.835
-0.133,0.438,-0.902,10.846
-0.137,0.438,-0.902,10.857
-0.137,0.438,-0.902,10.868
-0.137,0.441,-0.902,10.879
-0.145,0.445,-0.898,10.89
-0.148,0.453,-0.902,10.901
-0.152,0.441,-0.902,10.912
-0.152,0.441,-0.902,10.923
-0.145,0.441,-0.906,10.934
-0.141,0.438,-0.906,10.945
-0.141,0.441,-0.906,10.956
-0.137,0.441,-0.902,10.967
-0.137,0.441,-0.902,10.978
-0.133,0.441,-0.902,10.989
-0.133,0.441,-0.895,11
-0.137,0.441,-0.898,11.011
-0.133,0.441,-0.898,11.022
-0.137,0.441,-0.902,11.033
-0.141,0.445,-0.902,11.044
-0.137,0.441,-0.902,11.055
-0.141,0.445,-0.898,11.066
-0.137,0.441,-0.898,11.077
-0.137,0.441,-0.906,11.088
-0.133,0.434,-0.914,11.099
-0.133,0.438,-0.902,11.11
-0.137,0.438,-0.902,11.121
-0.141,0.441,-0.902,11.132
-0.148,0.441,-0.902,11.143
-0.152,0.441,-0.902,11.154
-0.145,0.441,-0.902,11.165
-0.148,0.441,-0.902,11.176
-0.148,0.441,-0.906,11.187
-0.141,0.441,-0.906,11.198
-0.137,0.438,-0.906,11.209
-0.145,0.438,-0.906,11.22
-0.141,0.438,-0.902,11.231
-0.137,0.434,-0.902,11.242
-0.137,0.438,-0.906,11.253
-0.141,0.441,-0.906,11.264
-0.141,0.441,-0.902,11.275
-0.145,0.438,-0.902,11.286
-0.148,0.438,-0.91,11.297
-0.141,0.434,-0.906,11.308
-0.141,0.438,-0.906,11.319
-0.141,0.441,-0.906,11.33
-0.141,0.438,-0.902,11.341
-0.141,0.438,-0.902,11.352
-0.145,0.438,-0.902,11.363
-0.145,0.438,-0.902,11.374
-0.148,0.441,-0.902,11.385
-0.141,0.445,-0.906,11.396
-0.148,0.434,-0.902,11.407
-0.152,0.438,-0.906,11.418
-0.152,0.438,-0.906,11.429
-0.152,0.438,-0.902,11.44
-0.156,0.438,-0.906,11.451
-0.152,0.434,-0.906,11.462
-0.152,0.438,-0.902,11.473
-0.156,0.438,-0.902,11.484
-0.152,0.441,-0.902,11.495
-0.156,0.438,-0.91,11.506
-0.156,0.438,-0.91,11.517
-0.148,0.434,-0.906,11.528
-0.145,0.43,-0.906,11.539
-0.137,0.434,-0.906,11.55
-0.145,0.434,-0.91,11.561
-0.145,0.438,-0.91,11.572
-0.152,0.441,-0.906,11.583
-0.152,0.441,-0.906,11.594
-0.16,0.441,-0.902,11.605
-0.168,0.441,-0.902,11.616
-0.168,0.434,-0.902,11.627
-0.172,0.43,-0.902,11.638
-0.168,0.43,-0.902,11.649
-0.164,0.434,-0.902,11.66
-0.168,0.43,-0.902,11.671
-0.168,0.434,-0.906,11.682
-0.16,0.434,-0.902,11.693
-0.156,0.438,-0.902,11.704
-0.148,0.43,-0.902,11.715
-0.145,0.434,-0.902,11.726
-0.145,0.434,-0.906,11.737
-0.156,0.438,-0.902,11.748
-0.156,0.438,-0.906,11.759
-0.16,0.434,-0.902,11.77
-0.16,0.438,-0.906,11.781
-0.16,0.434,-0.906,11.792
-0.16,0.434,-0.906,11.803
-0.156,0.434,-0.902,11.814
-0.152,0.43,-0.902,11.825
-0.152,0.43,-0.902,11.836
-0.152,0.43,-0.906,11.847
-0.16,0.438,-0.906,11.858
-0.164,0.438,-0.906,11.869
-0.16,0.438,-0.91,11.88
-0.164,0.445,-0.91,11.891
-0.16,0.434,-0.906,11.902
-0.16,0.434,-0.91,11.913
-0.16,0.438,-0.906,11.924
-0.16,0.434,-0.902,11.935
-0.156,0.434,-0.902,11.946
-0.16,0.434,-0.902,11.957
-0.164,0.434,-0.902,11.968
-0.164,0.434,-0.91,11.979
-0.164,0.438,-0.906,11.99
-0.16,0.441,-0.902,12.001
-0.16,0.434,-0.902,12.012
-0.156,0.43,-0.906,12.023
-0.152,0.434,-0.906,12.034
-0.16,0.438,-0.902,12.045
-0.16,0.434,-0.906,12.056
-0.164,0.438,-0.906,12.067
-0.16,0.438,-0.906,12.078
-0.16,0.434,-0.906,12.089
-0.164,0.438,-0.906,12.1
-0.164,0.438,-0.902,12.111
-0.168,0.438,-0.906,12.122
-0.164,0.438,-0.906,12.133
-0.168,0.438,-0.906,12.144
-0.16,0.434,-0.906,12.155
-0.152,0.43,-0.906,12.166
-0.156,0.434,-0.902,12.177
-0.16,0.434,-0.902,12.188
-0.16,0.434,-0.906,12.199
-0.156,0.434,-0.902,12.21
-0.16,0.43,-0.902,12.221
-0.148,0.43,-0.91,12.232
-0.145,0.43,-0.906,12.243
-0.148,0.434,-0.902,12.254
-0.152,0.434,-0.906,12.265
-0.156,0.434,-0.902,12.276
-0.164,0.438,-0.902,12.287
-0.168,0.434,-0.902,12.298
-0.168,0.43,-0.906,12.309
-0.172,0.438,-0.902,12.32
-0.168,0.43,-0.902,12.331
-0.172,0.43,-0.902,12.342
-0.168,0.43,-0.902,12.353
-0.164,0.434,-0.906,12.364
-0.164,0.434,-0.902,12.375
-0.16,0.441,-0.902,12.386
-0.16,0.438,-0.902,12.397
-0.156,0.438,-0.91,12.408
-0.152,0.441,-0.906,12.419
-0.148,0.434,-0.902,12.43
-0.156,0.43,-0.902,12.441
-0.16,0.426,-0.906,12.452
-0.164,0.43,-0.902,12.463
-0.156,0.43,-0.902,12.474
-0.156,0.434,-0.906,12.485
-0.16,0.434,-0.906,12.496
-0.16,0.438,-0.906,12.507
-0.156,0.434,-0.906,12.518
-0.156,0.434,-0.91,12.529
-0.164,0.438,-0.906,12.54
-0.164,0.434,-0.906,12.551
-0.168,0.426,-0.91,12.562
-0.168,0.434,-0.906,12.573
-0.164,0.438,-0.906,12.584
-0.164,0.434,-0.906,12.595
-0.164,0.438,-0.91,12.606
-0.164,0.438,-0.906,12.617
-0.164,0.434,-0.902,12.628
-0.164,0.43,-0.902,12.639
-0.156,0.434,-0.906,12.65
-0.16,0.43,-0.906,12.661
-0.164,0.434,-0.906,12.672
-0.16,0.434,-0.902,12.683
-0.156,0.438,-0.906,12.694
-0.148,0.434,-0.906,12.705
-0.141,0.426,-0.906,12.716
-0.148,0.43,-0.906,12.727
-0.152,0.434,-0.902,12.738
-0.152,0.434,-0.902,12.749
-0.16,0.438,-0.902,12.76
-0.16,0.43,-0.906,12.771
-0.156,0.43,-0.906,12.782
-0.164,0.43,-0.906,12.793
-0.16,0.426,-0.906,12.804
-0.16,0.43,-0.906,12.815
-0.16,0.43,-0.906,12.826
-0.156,0.434,-0.906,12.837
-0.152,0.438,-0.902,12.848
-0.152,0.438,-0.902,12.859
-0.156,0.438,-0.895,12.87
-0.152,0.449,-0.902,12.881
-0.16,0.434,-0.902,12.892
-0.156,0.43,-0.906,12.903
-0.156,0.434,-0.918,12.914
-0.152,0.434,-0.918,12.925
-0.145,0.434,-0.914,12.936
-0.145,0.438,-0.91,12.947
-0.148,0.438,-0.914,12.958
-0.152,0.434,-0.91,12.969
-0.156,0.438,-0.91,12.98
-0.164,0.438,-0.906,12.991
-0.164,0.434,-0.906,13.002
-0.168,0.438,-0.91,13.013
-0.16,0.438,-0.914,13.024
-0.16,0.438,-0.91,13.035
-0.156,0.438,-0.906,13.046
-0.156,0.438,-0.902,13.057
-0.156,0.438,-0.906,13.068
-0.156,0.438,-0.902,13.079
-0.152,0.438,-0.906,13.09
-0.145,0.438,-0.906,13.101
-0.145,0.438,-0.902,13.112
-0.148,0.438,-0.906,13.123
-0.145,0.438,-0.91,13.134
-0.148,0.438,-0.906,13.145
-0.148,0.438,-0.906,13.156
-0.152,0.438,-0.902,13.167
-0.152,0.438,-0.902,13.178
-0.145,0.441,-0.902,13.189
-0.145,0.438,-0.906,13.2
-0.145,0.438,-0.91,13.211
-0.148,0.441,-0.906,13.222
-0.148,0.441,-0.906,13.233
-0.152,0.438,-0.906,13.244
-0.148,0.441,-0.906,13.255
-0.152,0.438,-0.91,13.266
-0.141,0.438,-0.902,13.277
-0.148,0.434,-0.906,13.288
-0.152,0.438,-0.902,13.299
-0.152,0.438,-0.902,13.31
-0.145,0.441,-0.895,13.321
-0.145,0.441,-0.898,13.332
-0.148,0.441,-0.902,13.343
-0.141,0.441,-0.902,13.354
-0.137,0.441,-0.902,13.365
-0.137,0.449,-0.902,13.376
-0.137,0.438,-0.902,13.387
-0.137,0.438,-0.902,13.398
-0.133,0.438,-0.902,13.409
-0.133,0.438,-0.902,13.42
-0.137,0.441,-0.902,13.431
-0.141,0.441,-0.898,13.442
-0.141,0.445,-0.902,13.453
-0.137,0.441,-0.902,13.464
-0.137,0.441,-0.902,13.475
-0.133,0.441,-0.902,13.486
-0.137,0.438,-0.902,13.497
-0.141,0.438,-0.906,13.508
-0.145,0.441,-0.902,13.519
-0.141,0.441,-0.902,13.53
-0.141,0.441,-0.902,13.541
-0.141,0.441,-0.898,13.552
-0.141,0.441,-0.895,13.563
-0.141,0.441,-0.898,13.574
-0.145,0.445,-0.902,13.585
-0.141,0.445,-0.906,13.596
-0.137,0.441,-0.91,13.607
-0.129,0.441,-0.91,13.618
-0.125,0.441,-0.906,13.629
-0.129,0.441,-0.902,13.64
-0.137,0.438,-0.902,13.651
-0.141,0.434,-0.902,13.662
-0.148,0.438,-0.895,13.673
-0.152,0.438,-0.898,13.684
-0.16,0.441,-0.898,13.695
-0.164,0.441,-0.902,13.706
-0.152,0.438,-0.902,13.717
-0.148,0.441,-0.902,13.728
-0.148,0.441,-0.902,13.739
-0.145,0.438,-0.902,13.75
-0.145,0.438,-0.906,13.761
-0.141,0.441,-0.906,13.772
-0.137,0.441,-0.91,13.783
-0.137,0.441,-0.906,13.794
-0.145,0.441,-0.906,13.805
-0.141,0.441,-0.906,13.816
-0.148,0.441,-0.906,13.827
-0.152,0.441,-0.906,13.838
-0.148,0.438,-0.906,13.849
-0.148,0.441,-0.902,13.86
-0.148,0.453,-0.902,13.871
-0.148,0.441,-0.895,13.882
-0.141,0.441,-0.902,13.893
-0.137,0.438,-0.902,13.904
-0.141,0.438,-0.906,13.915
-0.141,0.438,-0.906,13.926
-0.141,0.438,-0.91,13.937
-0.152,0.441,-0.91,13.948
-0.156,0.441,-0.914,13.959
-0.156,0.441,-0.906,13.97
-0.156,0.438,-0.906,13.981
-0.156,0.441,-0.91,13.992
-0.16,0.438,-0.914,14.003
-0.152,0.438,-0.906,14.014
-0.152,0.438,-0.906,14.025
-0.156,0.438,-0.906,14.036
-0.156,0.438,-0.906,14.047
-0.156,0.438,-0.906,14.058
-0.148,0.434,-0.906,14.069
-0.148,0.438,-0.906,14.08
-0.148,0.441,-0.91,14.091
-0.145,0.434,-0.91,14.102
-0.145,0.438,-0.906,14.113
-0.145,0.438,-0.906,14.124
-0.148,0.434,-0.906,14.135
-0.148,0.438,-0.902,14.146
-0.148,0.438,-0.902,14.157
-0.148,0.438,-0.902,14.168
-0.152,0.441,-0.91,14.179
-0.152,0.438,-0.906,14.19
-0.156,0.438,-0.902,14.201
-0.152,0.441,-0.902,14.212
-0.156,0.438,-0.902,14.223
-0.156,0.434,-0.906,14.234
-0.16,0.434,-0.902,14.245
-0.164,0.438,-0.902,14.256
-0.16,0.438,-0.902,14.267
-0.156,0.438,-0.902,14.278
-0.16,0.434,-0.902,14.289
-0.156,0.434,-0.906,14.3
-0.156,0.43,-0.906,14.311
-0.152,0.434,-0.91,14.322
-0.145,0.43,-0.914,14.333
-0.148,0.43,-0.91,14.344
-0.156,0.434,-0.906,14.355
-0.152,0.449,-0.902,14.366
-0.16,0.441,-0.902,14.377
-0.164,0.441,-0.902,14.388
-0.168,0.441,-0.906,14.399
-0.172,0.434,-0.902,14.41
-0.172,0.434,-0.902,14.421
-0.172,0.434,-0.902,14.432
-0.172,0.434,-0.906,14.443
-0.168,0.438,-0.906,14.454
-0.16,0.438,-0.902,14.465
-0.156,0.438,-0.902,14.476
-0.156,0.438,-0.906,14.487
-0.156,0.441,-0.906,14.498
-0.156,0.434,-0.91,14.509
-0.156,0.434,-0.906,14.52
-0.16,0.434,-0.906,14.531
-0.168,0.434,-0.902,14.542
-0.168,0.434,-0.902,14.553
-0.168,0.43,-0.902,14.564
-0.152,0.422,-0.902,14.575
-0.156,0.434,-0.902,14.586
-0.156,0.43,-0.906,14.597
-0.156,0.43,-0.902,14.608
-0.16,0.434,-0.906,14.619
-0.16,0.438,-0.91,14.63
-0.164,0.43,-0.91,14.641
-0.164,0.434,-0.91,14.652
-0.164,0.438,-0.906,14.663
-0.168,0.438,-0.906,14.674
-0.168,0.438,-0.91,14.685
-0.168,0.434,-0.906,14.696
-0.164,0.434,-0.902,14.707
-0.168,0.434,-0.902,14.718
-0.164,0.43,-0.902,14.729
-0.156,0.43,-0.902,14.74
-0.16,0.43,-0.902,14.751
-0.156,0.434,-0.902,14.762
-0.152,0.43,-0.902,14.773
-0.156,0.43,-0.902,14.784
-0.16,0.434,-0.906,14.795
-0.156,0.43,-0.906,14.806
-0.16,0.434,-0.906,14.817
-0.156,0.434,-0.906,14.828
-0.16,0.438,-0.906,14.839
-0.164,0.438,-0.902,14.85
-0.164,0.449,-0.898,14.861
-0.16,0.434,-0.902,14.872
-0.164,0.434,-0.91,14.883
-0.164,0.434,-0.906,14.894
-0.168,0.434,-0.91,14.905
-0.168,0.434,-0.91,14.916
-0.168,0.434,-0.906,14.927
-0.168,0.43,-0.91,14.938
-0.164,0.43,-0.91,14.949
-0.168,0.434,-0.906,14.96
-0.168,0.438,-0.906,14.971
-0.16,0.434,-0.906,14.982
-0.164,0.43,-0.91,14.993
-0.16,0.434,-0.906,15.004
-0.16,0.43,-0.906,15.015
-0.156,0.434,-0.906,15.026
-0.16,0.434,-0.906,15.037
-0.156,0.434,-0.906,15.048
-0.148,0.434,-0.906,15.059
-0.156,0.434,-0.906,15.07
-0.16,0.43,-0.91,15.081
-0.168,0.438,-0.906,15.092
-0.168,0.434,-0.902,15.103
-0.168,0.434,-0.902,15.114
-0.168,0.438,-0.902,15.125
-0.172,0.438,-0.906,15.136
-0.172,0.438,-0.902,15.147
-0.164,0.434,-0.906,15.158
-0.164,0.43,-0.906,15.169
-0.164,0.434,-0.906,15.18
-0.16,0.434,-0.902,15.191
-0.16,0.426,-0.906,15.202
-0.156,0.434,-0.91,15.213
-0.156,0.434,-0.91,15.224
-0.152,0.438,-0.91,15.235
-0.152,0.43,-0.906,15.246
-0.16,0.43,-0.906,15.257
-0.16,0.43,-0.906,15.268
-0.16,0.43,-0.906,15.279
-0.164,0.434,-0.906,15.29
-0.164,0.438,-0.906,15.301
-0.156,0.438,-0.91,15.312
-0.156,0.43,-0.906,15.323
-0.152,0.43,-0.906,15.334
-0.152,0.434,-0.906,15.345
-0.152,0.438,-0.91,15.356
-0.16,0.434,-0.902,15.367
-0.16,0.434,-0.91,15.378
-0.164,0.43,-0.91,15.389
-0.156,0.434,-0.906,15.4
-0.16,0.438,-0.906,15.411
-0.164,0.438,-0.902,15.422
-0.164,0.438,-0.906,15.433
-0.16,0.438,-0.906,15.444
-0.16,0.434,-0.906,15.455
-0.156,0.434,-0.902,15.466
-0.156,0.434,-0.902,15.477
-0.156,0.43,-0.906,15.488
-0.156,0.434,-0.902,15.499
-0.152,0.434,-0.906,15.51
-0.148,0.43,-0.91,15.521
-0.145,0.43,-0.906,15.532
-0.148,0.434,-0.902,15.543
-0.152,0.438,-0.902,15.554
-0.156,0.434,-0.902,15.565
-0.152,0.438,-0.902,15.576
-0.152,0.43,-0.906,15.587
-0.152,0.434,-0.902,15.598
-0.152,0.438,-0.902,15.609
-0.156,0.438,-0.902,15.62
-0.16,0.434,-0.902,15.631
-0.152,0.43,-0.902,15.642
-0.152,0.438,-0.902,15.653
-0.152,0.434,-0.902,15.664
-0.152,0.43,-0.902,15.675
-0.148,0.438,-0.91,15.686
-0.148,0.438,-0.91,15.697
-0.148,0.438,-0.91,15.708
-0.156,0.438,-0.906,15.719
-0.164,0.434,-0.906,15.73
-0.156,0.434,-0.906,15.741
-0.148,0.438,-0.906,15.752
-0.148,0.438,-0.902,15.763
-0.145,0.438,-0.902,15.774
-0.152,0.438,-0.902,15.785
-0.16,0.441,-0.902,15.796
-0.156,0.441,-0.906,15.807
-0.152,0.441,-0.914,15.818
-0.152,0.441,-0.918,15.829
-0.148,0.438,-0.918,15.84
-0.133,0.449,-0.918,15.851
-0.133,0.43,-0.91,15.862
-0.145,0.438,-0.906,15.873
-0.145,0.434,-0.906,15.884
-0.148,0.438,-0.906,15.895
-0.156,0.441,-0.902,15.906
-0.16,0.445,-0.902,15.917
-0.168,0.441,-0.902,15.928
-0.164,0.438,-0.906,15.939
-0.156,0.438,-0.906,15.95
-0.148,0.441,-0.906,15.961
-0.145,0.441,-0.906,15.972
-0.148,0.438,-0.906,15.983
-0.148,0.438,-0.906,15.994
-0.145,0.438,-0.906,16.005
-0.141,0.434,-0.91,16.016
-0.141,0.434,-0.91,16.027
-0.137,0.438,-0.902,16.038
-0.141,0.441,-0.902,16.049
-0.148,0.441,-0.91,16.06
-0.152,0.441,-0.902,16.071
-0.145,0.438,-0.902,16.082
-0.145,0.441,-0.902,16.093
-0.141,0.438,-0.902,16.104
-0.141,0.438,-0.902,16.115
-0.145,0.438,-0.906,16.126
-0.141,0.434,-0.906,16.137
-0.141,0.43,-0.906,16.148
-0.141,0.438,-0.902,16.159
-0.141,0.438,-0.906,16.17
-0.145,0.438,-0.902,16.181
-0.145,0.434,-0.902,16.192
-0.141,0.434,-0.902,16.203
-0.141,0.438,-0.902,16.214
-0.148,0.438,-0.902,16.225
-0.152,0.441,-0.902,16.236
-0.152,0.441,-0.902,16.247
-0.152,0.438,-0.902,16.258
-0.148,0.441,-0.902,16.269
-0.141,0.438,-0.902,16.28
-0.145,0.438,-0.902,16.291
-0.145,0.441,-0.902,16.302
-0.145,0.441,-0.906,16.313
-0.141,0.441,-0.91,16.324
-0.145,0.438,-0.906,16.335
-0.137,0.441,-0.902,16.346
-0.145,0.438,-0.902,16.357
-0.152,0.438,-0.906,16.368
-0.152,0.441,-0.902,16.379
-0.148,0.438,-0.902,16.39
-0.152,0.438,-0.906,16.401
-0.148,0.441,-0.902,16.412
-0.152,0.441,-0.902,16.423
-0.152,0.441,-0.902,16.434
-0.152,0.438,-0.902,16.445
-0.148,0.438,-0.906,16.456
-0.152,0.438,-0.906,16.467
-0.152,0.438,-0.906,16.478
-0.152,0.438,-0.906,16.489
-0.152,0.438,-0.906,16.5
-0.156,0.441,-0.906,16.511
-0.152,0.438,-0.906,16.522
-0.156,0.434,-0.906,16.533
-0.156,0.438,-0.902,16.544
-0.156,0.434,-0.902,16.555
-0.156,0.434,-0.902,16.566
-0.156,0.438,-0.902,16.577
-0.156,0.438,-0.902,16.588
-0.156,0.441,-0.902,16.599
-0.156,0.438,-0.906,16.61
-0.16,0.441,-0.906,16.621
-0.152,0.441,-0.906,16.632
-0.145,0.438,-0.906,16.643
-0.148,0.434,-0.91,16.654
-0.152,0.438,-0.91,16.665
-0.152,0.438,-0.906,16.676
-0.152,0.438,-0.906,16.687
-0.16,0.438,-0.902,16.698
-0.168,0.434,-0.906,16.709
-0.172,0.438,-0.906,16.72
-0.172,0.438,-0.906,16.731
-0.168,0.438,-0.906,16.742
-0.164,0.43,-0.906,16.753
-0.168,0.434,-0.906,16.764
-0.164,0.434,-0.906,16.775
-0.156,0.434,-0.906,16.786
-0.152,0.434,-0.906,16.797
-0.152,0.434,-0.902,16.808
-0.148,0.438,-0.902,16.819
-0.152,0.434,-0.902,16.83
-0.148,0.449,-0.906,16.841
-0.156,0.43,-0.902,16.852
-0.156,0.434,-0.906,16.863
-0.16,0.438,-0.902,16.874
-0.164,0.434,-0.902,16.885
-0.16,0.426,-0.898,16.896
-0.16,0.426,-0.902,16.907
-0.16,0.434,-0.902,16.918
-0.156,0.438,-0.902,16.929
-0.156,0.438,-0.902,16.94
-0.16,0.43,-0.906,16.951
-0.164,0.43,-0.91,16.962
-0.168,0.434,-0.91,16.973
-0.168,0.438,-0.906,16.984
-0.168,0.434,-0.906,16.995
-0.168,0.434,-0.902,17.006
-0.168,0.438,-0.902,17.017
-0.164,0.434,-0.906,17.028
-0.16,0.438,-0.902,17.039
-0.16,0.434,-0.906,17.05
-0.164,0.434,-0.902,17.061
-0.156,0.43,-0.902,17.072
-0.156,0.43,-0.902,17.083
-0.164,0.438,-0.906,17.094
-0.156,0.434,-0.906,17.105
-0.16,0.438,-0.902,17.116
-0.16,0.434,-0.902,17.127
-0.164,0.438,-0.902,17.138
-0.16,0.438,-0.906,17.149
-0.164,0.438,-0.902,17.16
-0.164,0.434,-0.902,17.171
-0.164,0.434,-0.902,17.182
-0.16,0.434,-0.906,17.193
-0.156,0.434,-0.902,17.204
-0.16,0.434,-0.91,17.215
-0.168,0.434,-0.91,17.226
-0.168,0.434,-0.906,17.237
-0.168,0.434,-0.906,17.248
-0.164,0.43,-0.906,17.259
-0.168,0.43,-0.902,17.27
-0.164,0.43,-0.906,17.281
-0.16,0.43,-0.91,17.292
-0.164,0.434,-0.914,17.303
-0.164,0.434,-0.914,17.314
-0.168,0.434,-0.91,17.325
-0.16,0.445,-0.91,17.336
-0.164,0.43,-0.906,17.347
-0.16,0.426,-0.906,17.358
-0.156,0.426,-0.902,17.369
-0.156,0.43,-0.902,17.38
-0.16,0.438,-0.902,17.391
-0.156,0.434,-0.902,17.402
-0.156,0.43,-0.898,17.413
-0.156,0.434,-0.902,17.424
-0.156,0.43,-0.906,17.435
-0.156,0.426,-0.906,17.446
-0.156,0.43,-0.91,17.457
-0.148,0.43,-0.918,17.468
-0.145,0.43,-0.91,17.479
-0.152,0.434,-0.906,17.49
-0.16,0.438,-0.902,17.501
-0.164,0.441,-0.902,17.512
-0.172,0.441,-0.902,17.523
-0.172,0.438,-0.902,17.534
-0.176,0.43,-0.902,17.545
-0.172,0.43,-0.906,17.556
-0.168,0.43,-0.902,17.567
-0.164,0.43,-0.906,17.578
-0.164,0.43,-0.902,17.589
-0.16,0.434,-0.906,17.6
-0.164,0.438,-0.902,17.611
-0.164,0.438,-0.906,17.622
-0.16,0.438,-0.902,17.633
-0.156,0.438,-0.906,17.644
-0.16,0.434,-0.906,17.655
-0.156,0.434,-0.906,17.666
-0.156,0.434,-0.906,17.677
-0.164,0.43,-0.906,17.688
-0.164,0.43,-0.902,17.699
-0.164,0.434,-0.902,17.71
-0.16,0.438,-0.902,17.721
-0.156,0.43,-0.902,17.732
-0.156,0.43,-0.902,17.743
-0.152,0.43,-0.902,17.754
-0.16,0.438,-0.902,17.765
-0.164,0.434,-0.906,17.776
-0.164,0.438,-0.906,17.787
-0.164,0.434,-0.91,17.798
-0.168,0.43,-0.906,17.809
-0.164,0.438,-0.906,17.82
-0.16,0.445,-0.902,17.831
-0.164,0.438,-0.902,17.842
-0.164,0.434,-0.906,17.853
-0.16,0.434,-0.906,17.864
-0.164,0.434,-0.906,17.875
-0.168,0.434,-0.906,17.886
-0.16,0.426,-0.906,17.897
-0.156,0.43,-0.906,17.908
-0.156,0.434,-0.906,17.919
-0.156,0.434,-0.902,17.93
-0.156,0.438,-0.902,17.941
-0.156,0.438,-0.906,17.952
-0.156,0.434,-0.906,17.963
-0.16,0.438,-0.906,17.974
-0.16,0.438,-0.902,17.985
-0.164,0.438,-0.902,17.996
-0.164,0.434,-0.902,18.007
-0.16,0.434,-0.902,18.018
-0.168,0.426,-0.902,18.029
-0.164,0.426,-0.906,18.04
-0.16,0.434,-0.902,18.051
-0.16,0.438,-0.906,18.062
-0.16,0.434,-0.91,18.073
-0.16,0.438,-0.914,18.084
-0.164,0.438,-0.91,18.095
-0.168,0.434,-0.906,18.106
-0.168,0.438,-0.902,18.117
-0.168,0.43,-0.906,18.128
-0.164,0.434,-0.902,18.139
-0.156,0.438,-0.902,18.15
-0.156,0.434,-0.902,18.161
-0.156,0.43,-0.898,18.172
-0.16,0.43,-0.906,18.183
-0.16,0.43,-0.91,18.194
-0.16,0.43,-0.91,18.205
-0.152,0.426,-0.918,18.216
-0.145,0.43,-0.918,18.227
-0.145,0.43,-0.91,18.238
-0.152,0.434,-0.906,18.249
-0.16,0.438,-0.902,18.26
-0.164,0.438,-0.902,18.271
-0.168,0.441,-0.902,18.282
-0.172,0.438,-0.902,18.293
-0.176,0.438,-0.902,18.304
-0.172,0.434,-0.902,18.315
-0.164,0.438,-0.902,18.326
-0.164,0.438,-0.902,18.337
-0.168,0.438,-0.902,18.348
-0.168,0.438,-0.902,18.359
-0.16,0.434,-0.906,18.37
-0.16,0.434,-0.906,18.381
-0.164,0.434,-0.906,18.392
-0.16,0.438,-0.906,18.403
-0.156,0.43,-0.902,18.414
-0.148,0.43,-0.902,18.425
-0.148,0.43,-0.902,18.436
-0.156,0.426,-0.902,18.447
-0.164,0.426,-0.902,18.458
-0.164,0.426,-0.902,18.469
-0.164,0.434,-0.902,18.48
-0.168,0.438,-0.906,18.491
-0.164,0.434,-0.906,18.502
-0.156,0.434,-0.902,18.513
-0.156,0.438,-0.906,18.524
-0.16,0.438,-0.906,18.535
-0.164,0.438,-0.906,18.546
-0.168,0.438,-0.906,18.557
-0.168,0.438,-0.906,18.568
-0.164,0.438,-0.902,18.579
-0.164,0.434,-0.906,18.59
-0.168,0.426,-0.902,18.601
-0.164,0.426,-0.902,18.612
-0.164,0.43,-0.906,18.623
-0.16,0.43,-0.906,18.634
-0.16,0.43,-0.91,18.645
-0.16,0.426,-0.91,18.656
-0.16,0.43,-0.906,18.667
-0.156,0.426,-0.91,18.678
-0.16,0.422,-0.906,18.689
-0.156,0.43,-0.906,18.7
-0.156,0.434,-0.902,18.711
-0.16,0.434,-0.906,18.722
-0.164,0.434,-0.902,18.733
-0.168,0.43,-0.902,18.744
-0.164,0.426,-0.902,18.755
-0.164,0.426,-0.906,18.766
-0.164,0.43,-0.906,18.777
-0.164,0.434,-0.906,18.788
-0.168,0.434,-0.902,18.799
-0.168,0.434,-0.902,18.81
-0.168,0.445,-0.91,18.821
-0.164,0.43,-0.902,18.832
-0.156,0.43,-0.902,18.843
-0.156,0.43,-0.902,18.854
-0.16,0.434,-0.902,18.865
-0.164,0.434,-0.902,18.876
-0.16,0.43,-0.902,18.887
-0.16,0.426,-0.914,18.898
-0.156,0.43,-0.918,18.909
-0.156,0.43,-0.914,18.92
-0.152,0.426,-0.914,18.931
-0.152,0.43,-0.906,18.942
-0.16,0.434,-0.906,18.953
-0.164,0.434,-0.906,18.964
-0.168,0.434,-0.906,18.975
-0.168,0.438,-0.906,18.986
-0.172,0.438,-0.906,18.997
-0.172,0.43,-0.902,19.008
-0.16,0.426,-0.906,19.019
-0.16,0.426,-0.906,19.03
-0.156,0.43,-0.906,19.041
-0.16,0.438,-0.902,19.052
-0.164,0.438,-0.902,19.063
-0.164,0.438,-0.906,19.074
-0.16,0.434,-0.906,19.085
-0.16,0.434,-0.906,19.096
-0.16,0.438,-0.902,19.107
-0.156,0.43,-0.906,19.118
-0.16,0.43,-0.906,19.129
-0.16,0.43,-0.906,19.14
-0.16,0.426,-0.906,19.151
-0.16,0.43,-0.91,19.162
-0.156,0.43,-0.902,19.173
-0.156,0.43,-0.902,19.184
-0.148,0.43,-0.902,19.195
-0.145,0.43,-0.906,19.206
-0.152,0.434,-0.91,19.217
-0.156,0.438,-0.91,19.228
-0.156,0.434,-0.914,19.239
-0.16,0.434,-0.906,19.25
-0.164,0.434,-0.906,19.261
-0.164,0.434,-0.906,19.272
-0.168,0.43,-0.906,19.283
-0.164,0.43,-0.902,19.294
-0.164,0.434,-0.906,19.305
-0.156,0.449,-0.91,19.316
-0.16,0.441,-0.906,19.327
-0.156,0.438,-0.906,19.338
-0.152,0.438,-0.906,19.349
-0.148,0.434,-0.906,19.36
-0.141,0.434,-0.906,19.371
-0.141,0.438,-0.91,19.382
-0.145,0.438,-0.91,19.393
-0.152,0.43,-0.91,19.404
-0.148,0.43,-0.906,19.415
-0.145,0.438,-0.902,19.426
-0.152,0.438,-0.902,19.437
-0.152,0.438,-0.902,19.448
-0.152,0.441,-0.902,19.459
-0.156,0.441,-0.91,19.47
-0.16,0.438,-0.914,19.481
-0.16,0.438,-0.91,19.492
-0.148,0.441,-0.91,19.503
-0.152,0.441,-0.906,19.514
-0.152,0.441,-0.91,19.525
-0.152,0.438,-0.914,19.536
-0.156,0.438,-0.91,19.547
-0.16,0.441,-0.918,19.558
-0.168,0.441,-0.922,19.569
-0.172,0.445,-0.93,19.58
-0.172,0.449,-0.941,19.591
-0.172,0.445,-0.957,19.602
-0.172,0.445,-0.969,19.613
-0.168,0.449,-0.969,19.624
-0.145,0.449,-0.969,19.635
-0.145,0.465,-0.973,19.646
-0.172,0.469,-0.984,19.657
-0.191,0.473,-1.004,19.668
-0.176,0.496,-1.02,19.679
-0.141,0.512,-1.027,19.69
-0.145,0.531,-1.027,19.701
-0.156,0.57,-1.004,19.712
-0.207,0.621,-0.988,19.723
-0.27,0.684,-0.996,19.734
-0.281,0.715,-0.988,19.745
-0.277,0.738,-1.004,19.756
-0.254,0.777,-1.012,19.767
-0.262,0.852,-1.004,19.778
-0.285,0.918,-0.992,19.789
-0.309,0.969,-0.957,19.8
-0.305,0.992,-0.922,19.811
-0.289,0.977,-0.867,19.822
-0.262,0.973,-0.828,19.833
-0.23,0.957,-0.809,19.844
-0.211,0.938,-0.801,19.855
-0.203,0.906,-0.789,19.866
-0.199,0.879,-0.797,19.877
-0.191,0.832,-0.801,19.888
-0.176,0.762,-0.801,19.899
-0.148,0.68,-0.801,19.91
-0.121,0.594,-0.789,19.921
-0.086,0.52,-0.762,19.932
-0.055,0.461,-0.738,19.943
-0.035,0.402,-0.734,19.954
-0.023,0.34,-0.742,19.965
-0.012,0.273,-0.758,19.976
0,0.207,-0.766,19.987
0.012,0.141,-0.766,19.998
0.031,0.07,-0.773,20.009
0.051,0.004,-0.777,20.02
0.055,-0.039,-0.746,20.031
0.063,-0.066,-0.703,20.042
0.078,-0.078,-0.66,20.053
0.082,-0.078,-0.641,20.064
0.09,-0.074,-0.648,20.075
0.086,-0.098,-0.68,20.086
0.078,-0.148,-0.734,20.097
0.063,-0.207,-0.766,20.108
0.035,-0.262,-0.793,20.119
-0.004,-0.297,-0.785,20.13
-0.051,-0.309,-0.75,20.141
-0.09,-0.309,-0.715,20.152
-0.105,-0.301,-0.711,20.163
-0.098,-0.293,-0.727,20.174
-0.086,-0.293,-0.758,20.185
-0.094,-0.281,-0.77,20.196
-0.109,-0.262,-0.773,20.207
-0.125,-0.254,-0.773,20.218
-0.125,-0.254,-0.777,20.229
-0.094,-0.273,-0.793,20.24
-0.07,-0.289,-0.824,20.251
-0.094,-0.305,-0.859,20.262
-0.18,-0.332,-0.891,20.273
-0.262,-0.363,-0.934,20.284
-0.281,-0.387,-0.977,20.295
-0.238,-0.375,-0.984,20.306
-0.188,-0.355,-0.961,20.317
-0.152,-0.32,-0.941,20.328
-0.148,-0.313,-0.926,20.339
-0.156,-0.316,-0.914,20.35
-0.168,-0.324,-0.914,20.361
-0.184,-0.324,-0.898,20.372
-0.219,-0.328,-0.887,20.383
-0.242,-0.348,-0.883,20.394
-0.262,-0.387,-0.875,20.405
-0.266,-0.43,-0.863,20.416
-0.254,-0.469,-0.859,20.427
-0.254,-0.508,-0.848,20.438
-0.266,-0.547,-0.824,20.449
-0.254,-0.605,-0.801,20.46
-0.211,-0.664,-0.758,20.471
-0.16,-0.703,-0.711,20.482
-0.109,-0.715,-0.688,20.493
-0.063,-0.742,-0.699,20.504
-0.039,-0.813,-0.746,20.515
-0.047,-0.891,-0.801,20.526
-0.082,-0.949,-0.836,20.537
-0.242,-1.262,-1.246,20.548
-1.121,-1.191,-1.477,20.559
-1.004,-0.883,-1.168,20.57
-0.379,-0.734,-0.855,20.581
-0.059,-0.941,-0.785,20.592
-0.043,-1.105,-0.758,20.603
-0.043,-1.098,-0.699,20.614
-0.023,-0.945,-0.625,20.625
0.09,-0.832,-0.566,20.636
0.211,-0.82,-0.547,20.647
0.254,-0.828,-0.566,20.658
0.191,-0.797,-0.598,20.669
0.055,-0.742,-0.621,20.68
-0.023,-0.703,-0.637,20.691
-0.023,-0.691,-0.645,20.702
0.016,-0.699,-0.652,20.713
0.047,-0.699,-0.66,20.724
0.078,-0.676,-0.668,20.735
0.105,-0.656,-0.664,20.746
0.113,-0.66,-0.664,20.757
0.074,-0.672,-0.676,20.768
0.027,-0.691,-0.691,20.779
-0.016,-0.695,-0.715,20.79
-0.051,-0.684,-0.742,20.801
-0.07,-0.68,-0.777,20.812
-0.059,-0.645,-0.793,20.823
-0.02,-0.633,-0.801,20.834
0.039,-0.664,-0.816,20.845
0.063,-0.688,-0.84,20.856
0.082,-0.691,-0.863,20.867
0.074,-0.672,-0.887,20.878
0.027,-0.645,-0.914,20.889
-0.016,-0.621,-0.941,20.9
-0.066,-0.617,-0.992,20.911
-0.113,-0.66,-1.043,20.922
-0.145,-0.73,-1.086,20.933
-0.129,-0.766,-1.109,20.944
-0.082,-0.762,-1.133,20.955
-0.008,-0.715,-1.129,20.966
0.066,-0.652,-1.105,20.977
0.117,-0.605,-1.094,20.988
0.16,-0.559,-1.07,20.999
0.207,-0.504,-1.035,21.01
0.301,-0.445,-1.012,21.021
0.387,-0.375,-0.961,21.032
0.453,-0.313,-0.93,21.043
0.508,-0.258,-0.879,21.054
0.582,-0.207,-0.813,21.065
0.652,-0.152,-0.754,21.076
0.711,-0.102,-0.715,21.087
0.715,-0.059,-0.668,21.098
0.656,-0.035,-0.625,21.109
0.57,-0.043,-0.629,21.12
0.508,-0.066,-0.648,21.131
0.48,-0.098,-0.688,21.142
0.465,-0.102,-0.75,21.153
0.426,-0.109,-0.984,21.164
0.359,-0.02,-1.141,21.175
0.367,0.086,-1.012,21.186
0.414,0.074,-0.879,21.197
0.398,-0.039,-0.863,21.208
0.367,-0.117,-0.797,21.219
0.414,-0.121,-0.746,21.23
0.563,-0.059,-0.672,21.241
0.656,0.008,-0.559,21.252
0.656,0.031,-0.449,21.263
0.609,0.02,-0.398,21.274
0.598,0,-0.418,21.285
0.594,0.012,-0.496,21.296
0.508,-0.016,-0.605,21.307
0.359,-0.043,-0.707,21.318
0.207,-0.086,-0.785,21.329
0.121,-0.148,-0.84,21.34
0.105,-0.203,-0.852,21.351
0.18,-0.223,-0.855,21.362
0.297,-0.234,-0.871,21.373
0.363,-0.254,-0.91,21.384
0.398,-0.277,-0.949,21.395
0.387,-0.305,-1.008,21.406
0.344,-0.348,-1.043,21.417
0.328,-0.375,-1.074,21.428
0.316,-0.375,-1.109,21.439
0.301,-0.367,-1.133,21.45
0.305,-0.352,-1.125,21.461
0.324,-0.332,-1.102,21.472
0.336,-0.313,-1.063,21.483
0.32,-0.301,-1.027,21.494
0.305,-0.281,-0.988,21.505
0.301,-0.27,-0.957,21.516
0.301,-0.254,-0.941,21.527
0.289,-0.246,-0.93,21.538
0.285,-0.238,-0.926,21.549
0.293,-0.23,-0.922,21.56
0.281,-0.223,-0.918,21.571
0.266,-0.219,-0.918,21.582
0.273,-0.215,-0.914,21.593
0.281,-0.211,-0.91,21.604
0.285,-0.211,-0.918,21.615
0.281,-0.203,-0.914,21.626
0.27,-0.195,-0.91,21.637
0.27,-0.191,-0.898,21.648
0.27,-0.195,-0.891,21.659
0.262,-0.199,-0.883,21.67
0.254,-0.195,-0.883,21.681
0.23,-0.207,-0.879,21.692
0.203,-0.219,-0.875,21.703
0.191,-0.227,-0.867,21.714
0.191,-0.238,-0.867,21.725
0.203,-0.254,-0.875,21.736
0.215,-0.27,-0.887,21.747
0.242,-0.277,-0.895,21.758
0.262,-0.289,-0.902,21.769
0.273,-0.297,-0.906,21.78
0.277,-0.289,-0.922,21.791
0.281,-0.305,-0.922,21.802
0.277,-0.305,-0.934,21.813
0.262,-0.305,-0.957,21.824
0.242,-0.309,-0.977,21.835
0.227,-0.305,-1,21.846
0.215,-0.297,-1.012,21.857
0.211,-0.301,-1.016,21.868
0.207,-0.297,-1.023,21.879
0.207,-0.285,-1.023,21.89
0.199,-0.277,-1.023,21.901
0.195,-0.273,-1.016,21.912
0.188,-0.262,-1.012,21.923
0.18,-0.258,-1.008,21.934
0.18,-0.25,-0.996,21.945
0.184,-0.234,-0.984,21.956
0.191,-0.227,-0.984,21.967
0.199,-0.219,-0.973,21.978
0.211,-0.215,-0.953,21.989
0.223,-0.207,-0.945,22
0.227,-0.199,-0.941,22.011
0.215,-0.195,-0.934,22.022
0.207,-0.195,-0.93,22.033
0.195,-0.195,-0.93,22.044
0.184,-0.203,-0.934,22.055
0.172,-0.211,-0.926,22.066
0.152,-0.215,-0.926,22.077
0.145,-0.223,-0.922,22.088
0.137,-0.23,-0.93,22.099
0.137,-0.234,-0.926,22.11
0.145,-0.238,-0.934,22.121
0.16,-0.242,-0.934,22.132
0.172,-0.246,-0.938,22.143
0.172,-0.246,-0.938,22.154
0.176,-0.25,-0.941,22.165
0.168,-0.254,-0.945,22.176
0.156,-0.262,-0.949,22.187
0.148,-0.266,-0.961,22.198
0.145,-0.262,-0.969,22.209
0.152,-0.266,-0.969,22.22
0.16,-0.27,-0.973,22.231
0.168,-0.273,-0.977,22.242
0.176,-0.27,-0.977,22.253
0.18,-0.273,-0.977,22.264
0.184,-0.273,-0.977,22.275
0.184,-0.266,-0.977,22.286
0.172,-0.27,-0.973,22.297
0.16,-0.266,-0.973,22.308
0.141,-0.266,-0.969,22.319
0.133,-0.266,-0.965,22.33
0.141,-0.254,-0.957,22.341
0.152,-0.258,-0.953,22.352
0.164,-0.25,-0.949,22.363
0.172,-0.246,-0.949,22.374
0.176,-0.242,-0.941,22.385
0.18,-0.242,-0.941,22.396
0.176,-0.242,-0.941,22.407
0.172,-0.242,-0.938,22.418
0.168,-0.242,-0.941,22.429
0.164,-0.246,-0.941,22.44
0.164,-0.25,-0.945,22.451
0.164,-0.246,-0.941,22.462
0.164,-0.258,-0.938,22.473
0.168,-0.262,-0.941,22.484
0.172,-0.262,-0.945,22.495
0.172,-0.27,-0.949,22.506
0.172,-0.27,-0.949,22.517
0.172,-0.27,-0.949,22.528
0.172,-0.266,-0.949,22.539
0.176,-0.27,-0.949,22.55
0.172,-0.266,-0.949,22.561
0.164,-0.266,-0.949,22.572
0.156,-0.27,-0.953,22.583
0.156,-0.273,-0.961,22.594
0.164,-0.273,-0.961,22.605
0.172,-0.266,-0.965,22.616
0.184,-0.27,-0.961,22.627
0.176,-0.27,-0.965,22.638
0.176,-0.27,-0.965,22.649
0.172,-0.266,-0.965,22.66
0.176,-0.262,-0.957,22.671
0.172,-0.254,-0.961,22.682
0.176,-0.25,-0.961,22.693
0.184,-0.246,-0.957,22.704
0.191,-0.246,-0.961,22.715
0.195,-0.242,-0.961,22.726
0.191,-0.242,-0.957,22.737
0.184,-0.246,-0.961,22.748
0.18,-0.25,-0.961,22.759
0.176,-0.242,-0.957,22.77
0.172,-0.23,-0.949,22.781
0.176,-0.246,-0.941,22.792
0.18,-0.25,-0.941,22.803
0.18,-0.246,-0.945,22.814
0.168,-0.246,-0.945,22.825
0.164,-0.242,-0.945,22.836
0.172,-0.246,-0.949,22.847
0.176,-0.242,-0.949,22.858
0.184,-0.238,-0.949,22.869
0.188,-0.242,-0.949,22.88
0.184,-0.246,-0.949,22.891
0.184,-0.25,-0.949,22.902
0.176,-0.258,-0.949,22.913
0.176,-0.258,-0.953,22.924
0.164,-0.254,-0.953,22.935
0.164,-0.254,-0.953,22.946
0.16,-0.258,-0.949,22.957
0.168,-0.246,-0.945,22.968
0.172,-0.25,-0.949,22.979
0.18,-0.246,-0.949,22.99
0.18,-0.25,-0.953,23.001
0.184,-0.254,-0.953,23.012
0.191,-0.25,-0.961,23.023
0.199,-0.246,-0.965,23.034
0.191,-0.238,-0.965,23.045
0.195,-0.238,-0.965,23.056
0.195,-0.238,-0.961,23.067
0.188,-0.234,-0.961,23.078
0.18,-0.242,-0.957,23.089
0.176,-0.242,-0.957,23.1
0.184,-0.242,-0.957,23.111
0.199,-0.242,-0.953,23.122
0.203,-0.242,-0.957,23.133
0.195,-0.242,-0.957,23.144
0.191,-0.238,-0.949,23.155
0.188,-0.234,-0.953,23.166
0.184,-0.238,-0.949,23.177
0.18,-0.238,-0.949,23.188
0.172,-0.238,-0.949,23.199
0.172,-0.242,-0.949,23.21
0.176,-0.246,-0.949,23.221
0.172,-0.246,-0.949,23.232
0.176,-0.254,-0.953,23.243
0.176,-0.246,-0.949,23.254
0.172,-0.242,-0.953,23.265
0.18,-0.234,-0.953,23.276
0.176,-0.242,-0.949,23.287
0.18,-0.246,-0.953,23.298
0.18,-0.246,-0.957,23.309
0.191,-0.242,-0.965,23.32
0.195,-0.242,-0.961,23.331
0.188,-0.242,-0.965,23.342
0.184,-0.242,-0.965,23.353
0.184,-0.242,-0.965,23.364
0.184,-0.242,-0.961,23.375
0.18,-0.242,-0.957,23.386
0.184,-0.242,-0.957,23.397
0.184,-0.242,-0.965,23.408
0.184,-0.242,-0.957,23.419
0.184,-0.242,-0.953,23.43
0.188,-0.242,-0.957,23.441
0.191,-0.238,-0.957,23.452
0.191,-0.238,-0.961,23.463
0.191,-0.234,-0.953,23.474
0.191,-0.242,-0.953,23.485
0.191,-0.242,-0.953,23.496
0.191,-0.242,-0.949,23.507
0.188,-0.242,-0.953,23.518
0.188,-0.242,-0.949,23.529
0.184,-0.246,-0.949,23.54
0.184,-0.242,-0.953,23.551
0.18,-0.242,-0.949,23.562
0.176,-0.242,-0.949,23.573
0.18,-0.238,-0.953,23.584
0.184,-0.242,-0.953,23.595
0.184,-0.242,-0.949,23.606
0.188,-0.242,-0.949,23.617
0.188,-0.242,-0.953,23.628
0.188,-0.242,-0.953,23.639
0.188,-0.242,-0.949,23.65
0.191,-0.25,-0.953,23.661
0.199,-0.246,-0.957,23.672
0.203,-0.246,-0.961,23.683
0.203,-0.246,-0.957,23.694
0.207,-0.242,-0.953,23.705
0.195,-0.242,-0.957,23.716
0.195,-0.242,-0.957,23.727
0.188,-0.242,-0.957,23.738
0.184,-0.246,-0.957,23.749
0.188,-0.25,-0.957,23.76
0.199,-0.234,-0.957,23.771
0.203,-0.242,-0.953,23.782
0.203,-0.242,-0.953,23.793
0.203,-0.242,-0.953,23.804
0.195,-0.242,-0.953,23.815
0.191,-0.238,-0.949,23.826
0.188,-0.242,-0.949,23.837
0.184,-0.242,-0.949,23.848
0.18,-0.242,-0.949,23.859
0.188,-0.242,-0.953,23.87
0.191,-0.242,-0.953,23.881
0.191,-0.242,-0.953,23.892
0.184,-0.238,-0.953,23.903
0.176,-0.238,-0.953,23.914
0.18,-0.242,-0.949,23.925
0.18,-0.242,-0.949,23.936
0.188,-0.242,-0.945,23.947
0.191,-0.242,-0.949,23.958
0.195,-0.238,-0.953,23.969
0.203,-0.238,-0.953,23.98
0.199,-0.238,-0.957,23.991
0.203,-0.242,-0.961,24.002
0.195,-0.242,-0.961,24.013
0.191,-0.238,-0.957,24.024
0.191,-0.242,-0.961,24.035
0.191,-0.242,-0.961,24.046
0.188,-0.246,-0.961,24.057
0.191,-0.246,-0.961,24.068
0.191,-0.242,-0.961,24.079
0.188,-0.246,-0.957,24.09
0.184,-0.242,-0.953,24.101
0.184,-0.242,-0.949,24.112
0.191,-0.234,-0.953,24.123
0.191,-0.238,-0.949,24.134
0.199,-0.238,-0.949,24.145
0.188,-0.238,-0.949,24.156
0.188,-0.238,-0.957,24.167
0.188,-0.238,-0.953,24.178
0.191,-0.238,-0.953,24.189
0.191,-0.238,-0.957,24.2
0.199,-0.238,-0.949,24.211
0.191,-0.238,-0.953,24.222
0.188,-0.234,-0.957,24.233
0.184,-0.238,-0.953,24.244
0.188,-0.238,-0.949,24.255
0.191,-0.234,-0.953,24.266
0.191,-0.242,-0.945,24.277
0.184,-0.238,-0.953,24.288
0.18,-0.238,-0.949,24.299
0.184,-0.23,-0.953,24.31
0.191,-0.23,-0.957,24.321
0.199,-0.234,-0.953,24.332
0.195,-0.238,-0.957,24.343
0.199,-0.238,-0.957,24.354
0.199,-0.238,-0.957,24.365
0.203,-0.242,-0.953,24.376
0.203,-0.246,-0.961,24.387
0.207,-0.242,-0.957,24.398
0.203,-0.242,-0.957,24.409
0.199,-0.234,-0.953,24.42
0.199,-0.238,-0.945,24.431
0.199,-0.242,-0.945,24.442
0.203,-0.242,-0.949,24.453
0.207,-0.242,-0.949,24.464
0.215,-0.25,-0.949,24.475
0.211,-0.246,-0.953,24.486
0.207,-0.246,-0.949,24.497
0.199,-0.246,-0.949,24.508
0.203,-0.25,-0.949,24.519
0.211,-0.25,-0.953,24.53
0.211,-0.25,-0.953,24.541
0.211,-0.254,-0.949,24.552
0.207,-0.258,-0.949,24.563
0.207,-0.254,-0.945,24.574
0.203,-0.254,-0.949,24.585
0.203,-0.25,-0.941,24.596
0.203,-0.25,-0.945,24.607
0.195,-0.246,-0.949,24.618
0.203,-0.246,-0.945,24.629
0.203,-0.242,-0.941,24.64
0.211,-0.25,-0.941,24.651
0.223,-0.25,-0.949,24.662
0.227,-0.246,-0.949,24.673
0.223,-0.246,-0.953,24.684
0.219,-0.246,-0.957,24.695
0.207,-0.246,-0.953,24.706
0.207,-0.246,-0.953,24.717
0.207,-0.246,-0.953,24.728
0.207,-0.242,-0.953,24.739
0.207,-0.246,-0.953,24.75
0.207,-0.234,-0.957,24.761
0.203,-0.234,-0.949,24.772
0.195,-0.238,-0.949,24.783
0.199,-0.242,-0.953,24.794
0.203,-0.242,-0.953,24.805
0.207,-0.242,-0.949,24.816
0.207,-0.246,-0.949,24.827
0.199,-0.242,-0.949,24.838
0.184,-0.242,-0.949,24.849
0.176,-0.246,-0.957,24.86
0.176,-0.246,-0.957,24.871
0.176,-0.246,-0.957,24.882
0.168,-0.242,-0.965,24.893
0.184,-0.246,-0.969,24.904
0.211,-0.258,-0.969,24.915
0.234,-0.27,-0.98,24.926
0.223,-0.293,-0.992,24.937
0.195,-0.32,-1,24.948
0.203,-0.352,-1,24.959
0.211,-0.363,-1,24.97
0.223,-0.359,-0.992,24.981
0.234,-0.336,-0.996,24.992
0.238,-0.309,-1.012,25.003
0.23,-0.293,-1.031,25.014
0.219,-0.281,-1.039,25.025
0.234,-0.273,-1.055,25.036
0.266,-0.266,-1.055,25.047
0.297,-0.266,-1.063,25.058
0.328,-0.262,-1.09,25.069
0.336,-0.27,-1.125,25.08
0.32,-0.273,-1.121,25.091
0.293,-0.277,-1.109,25.102
0.281,-0.277,-1.105,25.113
0.281,-0.281,-1.098,25.124
0.289,-0.281,-1.078,25.135
0.301,-0.293,-1.066,25.146
0.328,-0.309,-1.059,25.157
0.367,-0.328,-1.059,25.168
0.41,-0.348,-1.063,25.179
0.438,-0.379,-1.07,25.19
0.426,-0.41,-1.07,25.201
0.379,-0.434,-1.066,25.212
0.313,-0.445,-1.059,25.223
0.246,-0.465,-1.051,25.234
0.207,-0.488,-1.035,25.245
0.191,-0.5,-1.008,25.256
0.199,-0.523,-0.977,25.267
0.238,-0.531,-0.945,25.278
0.172,-0.395,-0.883,25.289
0.121,-0.277,-0.813,25.3
0.223,-0.371,-0.785,25.311
0.266,-0.531,-0.758,25.322
0.258,-0.465,-0.719,25.333
0.301,-0.477,-0.699,25.344
0.066,-0.516,-0.703,25.355
-0.086,-0.605,-0.727,25.366
-0.152,-0.781,-0.75,25.377
-0.141,-0.82,-0.762,25.388
0,-0.625,-0.754,25.399
0.086,-0.332,-0.68,25.41
0.152,-0.047,-0.648,25.421
0.285,0.094,-0.645,25.432
0.27,0.086,-0.656,25.443
0.148,-0.012,-0.695,25.454
0.051,-0.098,-0.723,25.465
0.02,-0.07,-0.75,25.476
0.035,0.004,-0.766,25.487
0.066,0.07,-0.777,25.498
0.082,0.109,-0.809,25.509
0.066,0.137,-0.828,25.52
0.051,0.16,-0.828,25.531
0.047,0.195,-0.832,25.542
0.055,0.246,-0.844,25.553
0.074,0.293,-0.859,25.564
0.082,0.32,-0.891,25.575
0.082,0.328,-0.914,25.586
0.078,0.324,-0.906,25.597
0.078,0.332,-0.887,25.608
0.086,0.348,-0.859,25.619
0.098,0.371,-0.824,25.63
0.105,0.391,-0.789,25.641
0.102,0.41,-0.766,25.652
0.098,0.43,-0.746,25.663
0.098,0.465,-0.723,25.674
0.098,0.488,-0.688,25.685
0.094,0.512,-0.676,25.696
0.094,0.535,-0.684,25.707
0.074,0.563,-0.699,25.718
0.059,0.59,-0.723,25.729
0.031,0.621,-0.734,25.74
0.012,0.664,-0.738,25.751
-0.004,0.684,-0.742,25.762
0.012,0.715,-0.754,25.773
0.039,0.75,-0.75,25.784
0.07,0.793,-0.746,25.795
0.07,0.844,-0.738,25.806
0.086,0.879,-0.734,25.817
0.082,0.891,-0.73,25.828
0.078,0.887,-0.734,25.839
0.074,0.895,-0.734,25.85
0.07,0.926,-0.719,25.861
0.066,0.996,-0.688,25.872
0.066,1.09,-0.672,25.883
0.082,1.176,-0.664,25.894
0.098,1.219,-0.668,25.905
0.121,1.215,-0.684,25.916
0.141,1.188,-0.699,25.927
0.16,1.133,-0.703,25.938
0.176,1.043,-0.688,25.949
0.199,0.934,-0.68,25.96
0.207,0.836,-0.676,25.971
0.195,0.762,-0.672,25.982
0.148,0.707,-0.668,25.993
0.078,0.68,-0.66,26.004
0.02,0.676,-0.652,26.015
0.004,0.688,-0.629,26.026
0.016,0.707,-0.613,26.037
0.023,0.723,-0.602,26.048
0.031,0.727,-0.605,26.059
0.047,0.73,-0.633,26.07
0.055,0.738,-0.66,26.081
0.063,0.742,-0.672,26.092
0.066,0.738,-0.668,26.103
0.066,0.734,-0.672,26.114
0.055,0.711,-0.738,26.125
0.012,0.688,-0.754,26.136
0.043,0.656,-0.738,26.147
0.191,0.645,-0.75,26.158
0.316,0.656,-0.762,26.169
0.352,0.66,-0.781,26.18
0.328,0.641,-0.805,26.191
0.336,0.617,-0.824,26.202
0.383,0.594,-0.84,26.213
0.445,0.598,-0.82,26.224
0.492,0.602,-0.766,26.235
0.512,0.613,-0.719,26.246
0.516,0.594,-0.707,26.257
0.52,0.574,-0.727,26.268
0.52,0.555,-0.773,26.279
0.504,0.539,-0.813,26.29
0.48,0.52,-0.828,26.301
0.445,0.5,-0.832,26.312
0.434,0.484,-0.824,26.323
0.422,0.48,-0.844,26.334
0.398,0.48,-0.828,26.345
0.383,0.488,-0.797,26.356
0.391,0.48,-0.793,26.367
0.422,0.477,-0.805,26.378
0.465,0.465,-0.805,26.389
0.496,0.473,-0.82,26.4
0.512,0.473,-0.816,26.411
0.5,0.48,-0.809,26.422
0.477,0.484,-0.801,26.433
0.453,0.496,-0.77,26.444
0.441,0.5,-0.727,26.455
0.434,0.508,-0.715,26.466
0.43,0.516,-0.727,26.477
0.449,0.531,-0.738,26.488
0.5,0.539,-0.762,26.499
0.555,0.547,-0.777,26.51
0.598,0.551,-0.793,26.521
0.605,0.547,-0.801,26.532
0.586,0.543,-0.809,26.543
0.555,0.543,-0.793,26.554
0.516,0.539,-0.766,26.565
0.496,0.531,-0.746,26.576
0.48,0.523,-0.723,26.587
0.461,0.523,-0.711,26.598
0.453,0.516,-0.699,26.609
0.453,0.512,-0.688,26.62
0.465,0.504,-0.68,26.631
0.461,0.508,-0.68,26.642
0.453,0.52,-0.684,26.653
0.445,0.527,-0.691,26.664
0.434,0.527,-0.695,26.675
0.43,0.531,-0.695,26.686
0.457,0.535,-0.707,26.697
0.48,0.535,-0.727,26.708
0.5,0.543,-0.738,26.719
0.508,0.543,-0.746,26.73
0.504,0.555,-0.758,26.741
0.477,0.543,-0.762,26.752
0.461,0.539,-0.766,26.763
0.453,0.535,-0.77,26.774
0.453,0.535,-0.762,26.785
0.457,0.535,-0.75,26.796
0.457,0.531,-0.742,26.807
0.469,0.535,-0.742,26.818
0.469,0.535,-0.742,26.829
0.445,0.535,-0.75,26.84
0.426,0.527,-0.75,26.851
0.41,0.52,-0.758,26.862
0.398,0.516,-0.754,26.873
0.395,0.512,-0.754,26.884
0.391,0.52,-0.754,26.895
0.383,0.516,-0.754,26.906
0.387,0.512,-0.75,26.917
0.402,0.516,-0.75,26.928
0.422,0.512,-0.75,26.939
0.426,0.52,-0.75,26.95
0.426,0.523,-0.754,26.961
0.422,0.52,-0.754,26.972
0.418,0.523,-0.754,26.983
0.426,0.523,-0.754,26.994
0.438,0.527,-0.758,27.005
0.453,0.531,-0.762,27.016
0.469,0.535,-0.766,27.027
0.477,0.531,-0.77,27.038
0.484,0.527,-0.766,27.049
0.496,0.527,-0.758,27.06
0.496,0.531,-0.75,27.071
0.488,0.531,-0.746,27.082
0.48,0.527,-0.738,27.093
0.473,0.52,-0.738,27.104
0.473,0.523,-0.734,27.115
0.473,0.523,-0.734,27.126
0.473,0.531,-0.734,27.137
0.465,0.531,-0.73,27.148
0.453,0.527,-0.734,27.159
0.445,0.52,-0.73,27.17
0.441,0.516,-0.727,27.181
0.434,0.516,-0.727,27.192
0.434,0.523,-0.727,27.203
0.438,0.52,-0.727,27.214
0.441,0.523,-0.734,27.225
0.449,0.535,-0.73,27.236
0.457,0.531,-0.723,27.247
0.461,0.527,-0.73,27.258
0.461,0.531,-0.727,27.269
0.461,0.527,-0.73,27.28
0.465,0.527,-0.738,27.291
0.473,0.52,-0.742,27.302
0.48,0.512,-0.75,27.313
0.484,0.512,-0.742,27.324
0.488,0.508,-0.746,27.335
0.488,0.508,-0.75,27.346
0.496,0.508,-0.734,27.357
0.504,0.508,-0.727,27.368
0.504,0.516,-0.723,27.379
0.504,0.52,-0.723,27.39
0.512,0.516,-0.723,27.401
0.527,0.523,-0.727,27.412
0.531,0.52,-0.723,27.423
0.531,0.523,-0.723,27.434
0.527,0.516,-0.723,27.445
0.52,0.52,-0.723,27.456
0.516,0.512,-0.719,27.467
0.508,0.512,-0.715,27.478
0.492,0.516,-0.707,27.489
0.484,0.512,-0.723,27.5
0.477,0.512,-0.719,27.511
0.473,0.512,-0.723,27.522
0.492,0.508,-0.715,27.533
0.508,0.508,-0.711,27.544
0.504,0.508,-0.715,27.555
0.504,0.508,-0.715,27.566
0.523,0.5,-0.707,27.577
0.563,0.5,-0.699,27.588
0.594,0.512,-0.684,27.599
0.574,0.52,-0.676,27.61
0.539,0.52,-0.68,27.621
0.516,0.512,-0.695,27.632
0.5,0.512,-0.719,27.643
0.504,0.508,-0.73,27.654
0.516,0.508,-0.734,27.665
0.52,0.504,-0.734,27.676
0.52,0.5,-0.73,27.687
0.531,0.5,-0.73,27.698
0.551,0.5,-0.719,27.709
0.57,0.504,-0.711,27.72
0.578,0.516,-0.711,27.731
0.563,0.508,-0.715,27.742
0.539,0.508,-0.719,27.753
0.527,0.504,-0.723,27.764
0.523,0.5,-0.723,27.775
0.527,0.496,-0.719,27.786
0.523,0.5,-0.719,27.797
0.523,0.504,-0.715,27.808
0.52,0.496,-0.711,27.819
0.527,0.496,-0.715,27.83
0.543,0.5,-0.715,27.841
0.547,0.496,-0.715,27.852
0.535,0.492,-0.719,27.863
0.527,0.484,-0.723,27.874
0.523,0.488,-0.723,27.885
0.527,0.488,-0.723,27.896
0.531,0.492,-0.723,27.907
0.527,0.492,-0.715,27.918
0.527,0.496,-0.711,27.929
0.523,0.492,-0.711,27.94
0.531,0.488,-0.719,27.951
0.527,0.492,-0.723,27.962
0.52,0.488,-0.727,27.973
0.512,0.488,-0.73,27.984
0.512,0.488,-0.734,27.995
0.516,0.484,-0.727,28.006
0.516,0.496,-0.727,28.017
0.52,0.496,-0.73,28.028
0.52,0.496,-0.73,28.039
0.523,0.492,-0.73,28.05
0.523,0.5,-0.73,28.061
0.52,0.496,-0.734,28.072
0.508,0.488,-0.734,28.083
0.512,0.492,-0.734,28.094
0.516,0.488,-0.73,28.105
0.52,0.496,-0.727,28.116
0.516,0.492,-0.727,28.127
0.512,0.488,-0.723,28.138
0.516,0.488,-0.727,28.149
0.52,0.492,-0.719,28.16
0.523,0.492,-0.723,28.171
0.523,0.492,-0.719,28.182
0.523,0.488,-0.723,28.193
0.52,0.488,-0.723,28.204
0.516,0.488,-0.723,28.215
0.512,0.496,-0.727,28.226
0.508,0.492,-0.723,28.237
0.516,0.488,-0.734,28.248
0.527,0.492,-0.73,28.259
0.531,0.488,-0.734,28.27
0.543,0.492,-0.73,28.281
0.539,0.496,-0.73,28.292
0.531,0.496,-0.734,28.303
0.52,0.492,-0.734,28.314
0.508,0.488,-0.738,28.325
0.512,0.484,-0.738,28.336
0.516,0.488,-0.734,28.347
0.516,0.492,-0.734,28.358
0.508,0.492,-0.734,28.369
0.508,0.488,-0.738,28.38
0.5,0.492,-0.738,28.391
0.496,0.496,-0.738,28.402
0.488,0.496,-0.738,28.413
0.492,0.484,-0.742,28.424
0.496,0.484,-0.738,28.435
0.492,0.484,-0.742,28.446
0.5,0.484,-0.742,28.457
0.504,0.488,-0.738,28.468
0.504,0.492,-0.734,28.479
0.496,0.484,-0.734,28.49
0.5,0.48,-0.738,28.501
0.5,0.484,-0.738,28.512
0.508,0.488,-0.738,28.523
0.504,0.488,-0.738,28.534
0.508,0.488,-0.738,28.545
0.512,0.484,-0.738,28.556
0.508,0.484,-0.742,28.567
0.508,0.48,-0.738,28.578
0.512,0.48,-0.738,28.589
0.512,0.484,-0.738,28.6
0.516,0.484,-0.734,28.611
0.516,0.492,-0.738,28.622
0.512,0.492,-0.742,28.633
0.496,0.488,-0.746,28.644
0.492,0.488,-0.75,28.655
0.492,0.488,-0.746,28.666
0.496,0.488,-0.746,28.677
0.496,0.492,-0.742,28.688
0.5,0.492,-0.738,28.699
0.504,0.496,-0.742,28.71
0.508,0.504,-0.746,28.721
0.504,0.484,-0.742,28.732
0.504,0.488,-0.738,28.743
0.504,0.488,-0.738,28.754
0.504,0.488,-0.738,28.765
0.504,0.488,-0.734,28.776
0.504,0.488,-0.738,28.787
0.5,0.488,-0.738,28.798
0.496,0.488,-0.738,28.809
0.488,0.484,-0.738,28.82
0.484,0.484,-0.738,28.831
0.492,0.48,-0.746,28.842
0.504,0.484,-0.742,28.853
0.512,0.488,-0.742,28.864
0.516,0.488,-0.742,28.875
0.52,0.488,-0.742,28.886
0.516,0.488,-0.742,28.897
0.512,0.488,-0.738,28.908
0.5,0.488,-0.738,28.919
0.5,0.484,-0.738,28.93
0.504,0.488,-0.742,28.941
0.5,0.492,-0.738,28.952
0.504,0.496,-0.746,28.963
0.508,0.488,-0.746,28.974
0.496,0.484,-0.746,28.985
0.492,0.488,-0.75,28.996
0.484,0.488,-0.75,29.007
0.48,0.488,-0.742,29.018
0.484,0.496,-0.738,29.029
0.492,0.496,-0.742,29.04
0.496,0.492,-0.742,29.051
0.492,0.492,-0.738,29.062
0.492,0.492,-0.742,29.073
0.488,0.492,-0.738,29.084
0.492,0.492,-0.742,29.095
0.5,0.488,-0.738,29.106
0.504,0.492,-0.738,29.117
0.512,0.488,-0.734,29.128
0.508,0.492,-0.742,29.139
0.496,0.492,-0.742,29.15
0.488,0.492,-0.742,29.161
0.492,0.496,-0.742,29.172
0.496,0.492,-0.738,29.183
0.492,0.492,-0.742,29.194
0.488,0.488,-0.742,29.205
0.492,0.504,-0.742,29.216
0.488,0.496,-0.742,29.227
0.488,0.492,-0.746,29.238
0.492,0.496,-0.746,29.249
0.488,0.492,-0.742,29.26
0.488,0.492,-0.742,29.271
0.48,0.496,-0.738,29.282
0.48,0.496,-0.742,29.293
0.484,0.492,-0.742,29.304
0.488,0.492,-0.742,29.315
0.492,0.496,-0.742,29.326
0.504,0.5,-0.738,29.337
0.496,0.5,-0.738,29.348
0.484,0.5,-0.738,29.359
0.484,0.496,-0.738,29.37
0.484,0.496,-0.738,29.381
0.48,0.504,-0.738,29.392
0.473,0.504,-0.738,29.403
0.461,0.496,-0.746,29.414
0.457,0.496,-0.75,29.425
0.477,0.496,-0.75,29.436
0.492,0.5,-0.75,29.447
0.504,0.5,-0.742,29.458
0.504,0.496,-0.75,29.469
0.496,0.496,-0.75,29.48
0.488,0.496,-0.742,29.491
0.484,0.504,-0.742,29.502
0.484,0.504,-0.742,29.513
0.477,0.504,-0.75,29.524
0.469,0.5,-0.75,29.535
0.473,0.504,-0.746,29.546
0.477,0.5,-0.75,29.557
0.48,0.504,-0.75,29.568
0.48,0.496,-0.75,29.579
0.473,0.5,-0.754,29.59
0.473,0.496,-0.746,29.601
0.477,0.5,-0.746,29.612
0.48,0.504,-0.742,29.623
0.484,0.5,-0.742,29.634
0.48,0.492,-0.746,29.645
0.477,0.5,-0.742,29.656
0.48,0.496,-0.746,29.667
0.48,0.5,-0.746,29.678
0.48,0.5,-0.738,29.689
0.488,0.5,-0.738,29.7
0.492,0.508,-0.746,29.711
0.473,0.5,-0.742,29.722
0.473,0.504,-0.746,29.733
0.48,0.504,-0.75,29.744
0.48,0.496,-0.746,29.755
0.477,0.496,-0.742,29.766
0.477,0.5,-0.746,29.777
0.477,0.504,-0.75,29.788
0.473,0.504,-0.754,29.799
0.473,0.5,-0.75,29.81
0.473,0.504,-0.746,29.821
0.473,0.504,-0.75,29.832
0.469,0.504,-0.75,29.843
0.457,0.508,-0.75,29.854
0.461,0.504,-0.746,29.865
0.465,0.504,-0.746,29.876
0.461,0.5,-0.746,29.887
0.465,0.5,-0.746,29.898
0.473,0.5,-0.746,29.909
0.477,0.504,-0.742,29.92
0.48,0.5,-0.742,29.931
0.48,0.496,-0.738,29.942
0.484,0.5,-0.746,29.953
0.48,0.5,-0.75,29.964
0.473,0.5,-0.742,29.975
0.469,0.5,-0.742,29.986
0.461,0.5,-0.746,29.997
0.457,0.5,-0.75,30.008
0.465,0.496,-0.75,30.019
0.48,0.496,-0.75,30.03
0.484,0.496,-0.75,30.041
0.492,0.492,-0.75,30.052
0.492,0.492,-0.746,30.063
0.488,0.496,-0.746,30.074
0.48,0.5,-0.75,30.085
0.473,0.504,-0.75,30.096
0.469,0.5,-0.746,30.107
0.477,0.496,-0.75,30.118
0.48,0.504,-0.746,30.129
0.48,0.504,-0.75,30.14
0.48,0.496,-0.75,30.151
0.48,0.496,-0.746,30.162
0.477,0.492,-0.746,30.173
0.477,0.496,-0.746,30.184
0.477,0.492,-0.746,30.195
0.48,0.504,-0.746,30.206
0.473,0.496,-0.742,30.217
0.477,0.496,-0.746,30.228
0.48,0.492,-0.746,30.239
0.48,0.496,-0.742,30.25
0.48,0.5,-0.738,30.261
0.484,0.492,-0.742,30.272
0.484,0.492,-0.75,30.283
0.484,0.5,-0.746,30.294
0.48,0.496,-0.746,30.305
0.484,0.492,-0.742,30.316
0.488,0.496,-0.746,30.327
0.5,0.496,-0.738,30.338
0.496,0.5,-0.738,30.349
0.496,0.492,-0.746,30.36
0.488,0.492,-0.746,30.371
0.484,0.496,-0.75,30.382
0.484,0.492,-0.75,30.393
0.488,0.492,-0.75,30.404
0.488,0.492,-0.742,30.415
0.488,0.496,-0.746,30.426
0.488,0.496,-0.75,30.437
0.484,0.492,-0.746,30.448
0.484,0.492,-0.746,30.459
0.484,0.496,-0.746,30.47
0.48,0.492,-0.75,30.481
0.48,0.5,-0.75,30.492
0.484,0.496,-0.746,30.503
0.484,0.492,-0.746,30.514
0.484,0.488,-0.738,30.525
0.48,0.492,-0.738,30.536
0.48,0.496,-0.746,30.547
0.488,0.492,-0.746,30.558
0.492,0.496,-0.75,30.569
0.484,0.5,-0.746,30.58
0.484,0.492,-0.746,30.591
0.477,0.488,-0.742,30.602
0.48,0.496,-0.738,30.613
0.484,0.496,-0.742,30.624
0.492,0.492,-0.742,30.635
0.492,0.492,-0.75,30.646
0.496,0.492,-0.75,30.657
0.5,0.488,-0.746,30.668
0.5,0.492,-0.75,30.679
0.492,0.492,-0.754,30.69
0.488,0.504,-0.75,30.701
0.484,0.492,-0.742,30.712
0.488,0.496,-0.742,30.723
0.496,0.496,-0.742,30.734
0.492,0.492,-0.746,30.745
0.48,0.492,-0.746,30.756
0.477,0.492,-0.754,30.767
0.477,0.496,-0.754,30.778
0.48,0.496,-0.75,30.789
0.48,0.496,-0.746,30.8
0.484,0.496,-0.746,30.811
0.488,0.492,-0.746,30.822
0.488,0.492,-0.746,30.833
0.488,0.492,-0.746,30.844
0.484,0.492,-0.742,30.855
0.484,0.488,-0.742,30.866
0.488,0.488,-0.742,30.877
0.488,0.492,-0.742,30.888
0.488,0.488,-0.742,30.899
0.488,0.488,-0.742,30.91
0.484,0.492,-0.738,30.921
0.492,0.492,-0.742,30.932
0.488,0.492,-0.742,30.943
0.488,0.492,-0.746,30.954
0.488,0.488,-0.746,30.965
0.488,0.488,-0.742,30.976
0.484,0.488,-0.746,30.987
0.488,0.492,-0.742,30.998
0.484,0.492,-0.746,31.009
0.48,0.496,-0.746,31.02
0.48,0.496,-0.746,31.031
0.48,0.488,-0.746,31.042
0.48,0.496,-0.742,31.053
0.48,0.492,-0.742,31.064
0.488,0.492,-0.742,31.075
0.492,0.496,-0.746,31.086
0.496,0.496,-0.746,31.097
0.496,0.488,-0.742,31.108
0.492,0.492,-0.738,31.119
0.488,0.492,-0.738,31.13
0.484,0.496,-0.742,31.141
0.488,0.492,-0.746,31.152
0.496,0.496,-0.746,31.163
0.492,0.492,-0.742,31.174
0.484,0.496,-0.746,31.185
0.48,0.504,-0.746,31.196
0.477,0.488,-0.738,31.207
0.488,0.488,-0.746,31.218
0.496,0.488,-0.742,31.229
0.492,0.492,-0.746,31.24
0.492,0.492,-0.75,31.251
0.488,0.492,-0.75,31.262
0.488,0.496,-0.75,31.273
0.492,0.492,-0.746,31.284
0.496,0.492,-0.742,31.295
0.492,0.488,-0.742,31.306
0.492,0.484,-0.742,31.317
0.496,0.492,-0.742,31.328
0.496,0.492,-0.746,31.339
0.492,0.484,-0.746,31.35
0.48,0.492,-0.75,31.361
0.473,0.492,-0.746,31.372
0.48,0.492,-0.742,31.383
0.484,0.496,-0.742,31.394
0.484,0.492,-0.742,31.405
0.484,0.496,-0.742,31.416
0.484,0.492,-0.742,31.427
0.484,0.488,-0.742,31.438
0.484,0.492,-0.746,31.449
0.488,0.488,-0.742,31.46
0.488,0.492,-0.742,31.471
0.492,0.496,-0.742,31.482
0.496,0.5,-0.742,31.493
0.496,0.5,-0.746,31.504
0.492,0.5,-0.742,31.515
0.492,0.492,-0.742,31.526
0.496,0.484,-0.746,31.537
0.496,0.492,-0.742,31.548
0.5,0.492,-0.746,31.559
0.496,0.492,-0.75,31.57
0.492,0.492,-0.75,31.581
0.488,0.488,-0.75,31.592
0.488,0.488,-0.746,31.603
0.488,0.492,-0.746,31.614
0.484,0.496,-0.746,31.625
0.484,0.492,-0.746,31.636
0.484,0.492,-0.746,31.647
0.48,0.496,-0.742,31.658
0.477,0.492,-0.746,31.669
0.48,0.492,-0.746,31.68
0.488,0.508,-0.742,31.691
0.492,0.492,-0.742,31.702
0.5,0.496,-0.742,31.713
0.496,0.496,-0.742,31.724
0.496,0.492,-0.742,31.735
0.492,0.492,-0.742,31.746
0.488,0.492,-0.738,31.757
0.484,0.496,-0.738,31.768
0.484,0.504,-0.746,31.779
0.484,0.504,-0.742,31.79
0.477,0.504,-0.738,31.801
0.469,0.492,-0.738,31.812
0.461,0.484,-0.75,31.823
0.457,0.484,-0.746,31.834
0.477,0.488,-0.75,31.845
0.488,0.488,-0.754,31.856
0.496,0.488,-0.75,31.867
0.512,0.492,-0.75,31.878
0.5,0.492,-0.754,31.889
0.488,0.496,-0.75,31.9
0.477,0.504,-0.746,31.911
0.48,0.5,-0.746,31.922
0.484,0.5,-0.742,31.933
0.484,0.492,-0.746,31.944
0.488,0.492,-0.742,31.955
0.488,0.488,-0.742,31.966
0.488,0.492,-0.742,31.977
0.48,0.492,-0.746,31.988
0.477,0.492,-0.746,31.999
0.473,0.496,-0.742,32.01
0.477,0.492,-0.742,32.021
0.48,0.496,-0.746,32.032
0.48,0.492,-0.742,32.043
0.484,0.496,-0.742,32.054
0.473,0.492,-0.746,32.065
0.477,0.492,-0.742,32.076
0.48,0.496,-0.738,32.087
0.484,0.5,-0.742,32.098
0.484,0.5,-0.742,32.109
0.488,0.504,-0.742,32.12
0.484,0.496,-0.746,32.131
0.484,0.5,-0.746,32.142
0.48,0.496,-0.742,32.153
0.484,0.5,-0.742,32.164
0.48,0.5,-0.742,32.175
0.484,0.5,-0.746,32.186
0.484,0.5,-0.738,32.197
0.484,0.504,-0.742,32.208
0.48,0.5,-0.75,32.219
0.484,0.496,-0.75,32.23
0.477,0.504,-0.75,32.241
0.48,0.504,-0.75,32.252
0.477,0.504,-0.75,32.263
0.477,0.5,-0.742,32.274
0.473,0.496,-0.742,32.285
0.477,0.496,-0.75,32.296
0.48,0.496,-0.75,32.307
0.488,0.5,-0.746,32.318
0.488,0.496,-0.742,32.329
0.484,0.492,-0.746,32.34
0.488,0.488,-0.742,32.351
0.484,0.492,-0.738,32.362
0.48,0.496,-0.738,32.373
0.48,0.5,-0.742,32.384
0.48,0.504,-0.746,32.395
0.473,0.504,-0.746,32.406
0.469,0.504,-0.746,32.417
0.461,0.5,-0.75,32.428
0.461,0.496,-0.746,32.439
0.477,0.496,-0.746,32.45
0.492,0.496,-0.75,32.461
0.5,0.5,-0.75,32.472
0.496,0.504,-0.746,32.483
0.496,0.5,-0.75,32.494
0.488,0.5,-0.754,32.505
0.484,0.504,-0.746,32.516
0.484,0.504,-0.746,32.527
0.48,0.504,-0.742,32.538
0.484,0.496,-0.742,32.549
0.48,0.496,-0.746,32.56
0.48,0.5,-0.746,32.571
0.48,0.496,-0.746,32.582
0.477,0.488,-0.75,32.593
0.469,0.496,-0.75,32.604
0.473,0.496,-0.746,32.615
0.477,0.492,-0.746,32.626
0.477,0.492,-0.746,32.637
0.48,0.5,-0.746,32.648
0.484,0.496,-0.746,32.659
0.488,0.5,-0.742,32.67
0.488,0.508,-0.746,32.681
0.484,0.496,-0.738,32.692
0.484,0.5,-0.742,32.703
0.492,0.5,-0.738,32.714
0.496,0.492,-0.738,32.725
0.496,0.496,-0.738,32.736
0.488,0.492,-0.746,32.747
0.484,0.496,-0.75,32.758
0.484,0.496,-0.75,32.769
0.484,0.496,-0.746,32.78
0.48,0.496,-0.75,32.791
0.484,0.5,-0.75,32.802
0.484,0.504,-0.754,32.813
0.484,0.5,-0.746,32.824
0.484,0.5,-0.746,32.835
0.48,0.504,-0.746,32.846
0.477,0.504,-0.75,32.857
0.477,0.496,-0.746,32.868
0.477,0.496,-0.742,32.879
0.477,0.5,-0.738,32.89
0.48,0.492,-0.742,32.901
0.48,0.5,-0.742,32.912
0.48,0.504,-0.746,32.923
0.488,0.504,-0.742,32.934
0.484,0.504,-0.742,32.945
0.484,0.5,-0.742,32.956
0.48,0.496,-0.742,32.967
0.484,0.492,-0.742,32.978
0.48,0.5,-0.746,32.989
0.48,0.5,-0.746,33
0.484,0.504,-0.754,33.011
0.484,0.504,-0.75,33.022
0.477,0.5,-0.75,33.033
0.465,0.492,-0.742,33.044
0.457,0.488,-0.742,33.055
0.465,0.488,-0.742,33.066
0.48,0.492,-0.75,33.077
0.492,0.5,-0.746,33.088
0.492,0.496,-0.746,33.099
0.492,0.5,-0.746,33.11
0.488,0.504,-0.742,33.121
0.484,0.508,-0.742,33.132
0.48,0.504,-0.742,33.143
0.48,0.496,-0.742,33.154
0.484,0.5,-0.738,33.165
0.492,0.504,-0.746,33.176
0.492,0.492,-0.742,33.187
0.488,0.496,-0.746,33.198
0.484,0.496,-0.75,33.209
0.477,0.5,-0.75,33.22
0.469,0.496,-0.746,33.231
0.469,0.496,-0.742,33.242
0.473,0.496,-0.738,33.253
0.477,0.496,-0.742,33.264
0.48,0.488,-0.742,33.275
0.48,0.488,-0.746,33.286
0.484,0.488,-0.742,33.297
0.484,0.5,-0.746,33.308
0.484,0.5,-0.746,33.319
0.484,0.496,-0.746,33.33
0.492,0.496,-0.742,33.341
0.488,0.492,-0.742,33.352
0.488,0.492,-0.746,33.363
0.492,0.492,-0.742,33.374
0.492,0.492,-0.746,33.385
0.484,0.496,-0.742,33.396
0.484,0.5,-0.742,33.407
0.484,0.5,-0.742,33.418
0.492,0.5,-0.746,33.429
0.492,0.5,-0.754,33.44
0.492,0.496,-0.754,33.451
0.488,0.5,-0.746,33.462
0.484,0.5,-0.746,33.473
0.484,0.496,-0.742,33.484
0.48,0.492,-0.742,33.495
0.477,0.488,-0.742,33.506
0.48,0.492,-0.742,33.517
0.48,0.5,-0.742,33.528
0.488,0.496,-0.742,33.539
0.488,0.488,-0.742,33.55
0.488,0.488,-0.734,33.561
0.484,0.488,-0.734,33.572
0.488,0.488,-0.742,33.583
0.488,0.5,-0.75,33.594
0.492,0.5,-0.75,33.605
0.488,0.5,-0.75,33.616
0.477,0.5,-0.75,33.627
0.473,0.5,-0.746,33.638
0.473,0.488,-0.746,33.649
0.48,0.492,-0.746,33.66
0.488,0.504,-0.742,33.671
0.496,0.496,-0.746,33.682
0.496,0.492,-0.75,33.693
0.492,0.488,-0.75,33.704
0.488,0.492,-0.75,33.715
0.5,0.492,-0.746,33.726
0.492,0.5,-0.746,33.737
0.488,0.496,-0.746,33.748
0.488,0.492,-0.742,33.759
0.492,0.488,-0.742,33.77
0.484,0.488,-0.746,33.781
0.484,0.488,-0.75,33.792
0.477,0.488,-0.75,33.803
0.477,0.488,-0.746,33.814
0.48,0.496,-0.742,33.825
0.48,0.496,-0.742,33.836
0.484,0.492,-0.746,33.847
0.484,0.496,-0.75,33.858
0.484,0.492,-0.742,33.869
0.484,0.484,-0.738,33.88
0.484,0.484,-0.746,33.891
0.488,0.488,-0.742,33.902
0.488,0.492,-0.738,33.913
0.488,0.488,-0.742,33.924
0.496,0.488,-0.746,33.935
0.496,0.492,-0.742,33.946
0.496,0.496,-0.746,33.957
0.492,0.496,-0.746,33.968
0.488,0.492,-0.742,33.979
0.484,0.488,-0.746,33.99
0.488,0.492,-0.746,34.001
0.484,0.492,-0.746,34.012
0.484,0.492,-0.746,34.023
0.484,0.492,-0.75,34.034
0.484,0.492,-0.746,34.045
0.484,0.496,-0.746,34.056
0.484,0.496,-0.75,34.067
0.484,0.492,-0.75,34.078
0.484,0.496,-0.746,34.089
0.484,0.492,-0.742,34.1
0.484,0.492,-0.742,34.111
0.492,0.492,-0.742,34.122
0.492,0.492,-0.742,34.133
0.496,0.492,-0.746,34.144
0.5,0.488,-0.746,34.155
0.504,0.5,-0.754,34.166
0.492,0.492,-0.742,34.177
0.484,0.496,-0.746,34.188
0.48,0.496,-0.746,34.199
0.492,0.492,-0.75,34.21
0.496,0.504,-0.746,34.221
0.484,0.504,-0.746,34.232
0.473,0.5,-0.742,34.243
0.465,0.488,-0.738,34.254
0.465,0.488,-0.742,34.265
0.473,0.488,-0.746,34.276
0.488,0.492,-0.75,34.287
0.504,0.492,-0.746,34.298
0.504,0.496,-0.75,34.309
0.504,0.496,-0.754,34.32
0.504,0.5,-0.746,34.331
0.492,0.504,-0.742,34.342
0.488,0.5,-0.738,34.353
0.492,0.5,-0.734,34.364
0.496,0.496,-0.738,34.375
0.492,0.492,-0.738,34.386
0.488,0.496,-0.742,34.397
0.484,0.496,-0.75,34.408
0.48,0.496,-0.75,34.419
0.473,0.5,-0.75,34.43
0.477,0.496,-0.746,34.441
0.477,0.496,-0.742,34.452
0.477,0.496,-0.746,34.463
0.477,0.496,-0.75,34.474
0.48,0.496,-0.754,34.485
0.484,0.488,-0.746,34.496
0.484,0.496,-0.742,34.507
0.484,0.496,-0.742,34.518
0.484,0.5,-0.738,34.529
0.484,0.5,-0.738,34.54
0.488,0.496,-0.738,34.551
0.484,0.504,-0.738,34.562
0.484,0.504,-0.738,34.573
0.488,0.5,-0.742,34.584
0.484,0.496,-0.746,34.595
0.48,0.5,-0.75,34.606
0.488,0.492,-0.75,34.617
0.488,0.5,-0.746,34.628
0.484,0.504,-0.746,34.639
0.48,0.504,-0.75,34.65
0.473,0.508,-0.746,34.661
0.465,0.5,-0.742,34.672
0.477,0.496,-0.75,34.683
0.477,0.496,-0.754,34.694
0.48,0.496,-0.746,34.705
0.477,0.496,-0.742,34.716
0.484,0.5,-0.746,34.727
0.484,0.496,-0.738,34.738
0.484,0.496,-0.746,34.749
0.48,0.496,-0.75,34.76
0.477,0.496,-0.75,34.771
0.484,0.5,-0.746,34.782
0.484,0.504,-0.746,34.793
0.488,0.5,-0.746,34.804
0.484,0.5,-0.742,34.815
0.48,0.5,-0.742,34.826
0.477,0.504,-0.746,34.837
0.477,0.5,-0.746,34.848
0.473,0.5,-0.742,34.859
0.473,0.504,-0.746,34.87
0.461,0.504,-0.742,34.881
0.461,0.5,-0.746,34.892
0.461,0.5,-0.75,34.903
0.469,0.5,-0.75,34.914
0.484,0.504,-0.75,34.925
0.496,0.508,-0.75,34.936
0.496,0.504,-0.742,34.947
0.496,0.5,-0.746,34.958
0.484,0.504,-0.742,34.969
0.469,0.504,-0.742,34.98
0.469,0.508,-0.746,34.991
0.473,0.5,-0.75,35.002
0.477,0.504,-0.75,35.013
0.48,0.504,-0.75,35.024
0.48,0.504,-0.75,35.035
0.477,0.496,-0.75,35.046
0.473,0.496,-0.746,35.057
0.461,0.5,-0.746,35.068
0.457,0.504,-0.746,35.079
0.457,0.504,-0.746,35.09
0.465,0.504,-0.746,35.101
0.473,0.504,-0.746,35.112
0.473,0.504,-0.746,35.123
0.473,0.5,-0.742,35.134
0.469,0.504,-0.746,35.145
0.469,0.512,-0.746,35.156
0.469,0.504,-0.742,35.167
0.477,0.504,-0.746,35.178
0.48,0.504,-0.746,35.189
0.48,0.508,-0.746,35.2
0.473,0.508,-0.75,35.211
0.477,0.504,-0.746,35.222
0.465,0.5,-0.746,35.233
0.465,0.508,-0.75,35.244
0.465,0.504,-0.742,35.255
0.469,0.504,-0.742,35.266
0.469,0.508,-0.746,35.277
0.465,0.504,-0.746,35.288
0.469,0.504,-0.75,35.299
0.469,0.504,-0.754,35.31
0.469,0.504,-0.75,35.321
0.469,0.504,-0.754,35.332
0.473,0.508,-0.75,35.343
0.477,0.508,-0.746,35.354
0.48,0.504,-0.75,35.365
0.48,0.504,-0.746,35.376
0.48,0.504,-0.746,35.387
0.477,0.504,-0.746,35.398
0.473,0.5,-0.75,35.409
0.473,0.5,-0.746,35.42
0.477,0.504,-0.75,35.431
0.48,0.508,-0.746,35.442
0.48,0.5,-0.75,35.453
0.48,0.5,-0.75,35.464
0.48,0.5,-0.75,35.475
0.477,0.5,-0.75,35.486
0.473,0.5,-0.75,35.497
0.465,0.5,-0.75,35.508
0.465,0.504,-0.746,35.519
0.469,0.5,-0.746,35.53
0.465,0.496,-0.746,35.541
0.457,0.5,-0.746,35.552
0.457,0.496,-0.75,35.563
0.469,0.492,-0.75,35.574
0.484,0.5,-0.75,35.585
0.488,0.5,-0.75,35.596
0.496,0.496,-0.746,35.607
0.5,0.492,-0.742,35.618
0.496,0.5,-0.746,35.629
0.492,0.5,-0.75,35.64
0.492,0.508,-0.746,35.651
0.488,0.496,-0.742,35.662
0.484,0.504,-0.746,35.673
0.484,0.504,-0.742,35.684
0.484,0.504,-0.75,35.695
0.48,0.504,-0.75,35.706
0.473,0.5,-0.746,35.717
0.469,0.496,-0.746,35.728
0.473,0.496,-0.746,35.739
0.469,0.492,-0.75,35.75
0.473,0.496,-0.75,35.761
0.473,0.5,-0.754,35.772
0.477,0.5,-0.754,35.783
0.48,0.496,-0.754,35.794
0.48,0.5,-0.742,35.805
0.48,0.504,-0.742,35.816
0.48,0.5,-0.738,35.827
0.48,0.496,-0.738,35.838
0.484,0.496,-0.742,35.849
0.488,0.5,-0.742,35.86
0.488,0.5,-0.75,35.871
0.488,0.496,-0.75,35.882
0.484,0.496,-0.754,35.893
0.48,0.496,-0.75,35.904
0.48,0.504,-0.75,35.915
0.48,0.5,-0.75,35.926
0.484,0.5,-0.75,35.937
0.484,0.5,-0.75,35.948
0.48,0.496,-0.75,35.959
0.473,0.5,-0.746,35.97
0.473,0.5,-0.746,35.981
0.477,0.496,-0.75,35.992
0.48,0.5,-0.746,36.003
0.48,0.496,-0.742,36.014
0.484,0.496,-0.742,36.025
0.484,0.492,-0.746,36.036
0.48,0.492,-0.75,36.047
0.48,0.5,-0.75,36.058
0.48,0.5,-0.746,36.069
0.48,0.496,-0.742,36.08
0.48,0.5,-0.738,36.091
0.48,0.5,-0.738,36.102
0.48,0.504,-0.746,36.113
0.48,0.504,-0.75,36.124
0.48,0.508,-0.75,36.135
0.484,0.516,-0.75,36.146
0.48,0.5,-0.742,36.157
0.477,0.504,-0.742,36.168
0.473,0.504,-0.75,36.179
0.477,0.5,-0.75,36.19
0.484,0.5,-0.754,36.201
0.484,0.492,-0.75,36.212
0.477,0.5,-0.75,36.223
0.469,0.492,-0.75,36.234
0.465,0.488,-0.746,36.245
0.473,0.492,-0.746,36.256
0.484,0.496,-0.742,36.267
0.488,0.496,-0.746,36.278
0.488,0.5,-0.754,36.289
0.492,0.496,-0.754,36.3
0.488,0.496,-0.75,36.311
0.484,0.492,-0.754,36.322
0.48,0.5,-0.746,36.333
0.48,0.496,-0.75,36.344
0.48,0.496,-0.75,36.355
0.484,0.5,-0.746,36.366
0.484,0.504,-0.742,36.377
0.484,0.5,-0.75,36.388
0.48,0.5,-0.75,36.399
0.461,0.5,-0.754,36.41
0.457,0.504,-0.758,36.421
0.461,0.504,-0.746,36.432
0.469,0.5,-0.742,36.443
0.477,0.492,-0.738,36.454
0.48,0.492,-0.738,36.465
0.484,0.496,-0.742,36.476
0.484,0.5,-0.746,36.487
0.477,0.496,-0.746,36.498
0.477,0.492,-0.746,36.509
0.48,0.492,-0.742,36.52
0.48,0.496,-0.742,36.531
0.473,0.5,-0.742,36.542
0.473,0.5,-0.742,36.553
0.48,0.5,-0.746,36.564
0.48,0.5,-0.75,36.575
0.484,0.496,-0.75,36.586
0.484,0.5,-0.75,36.597
0.484,0.496,-0.75,36.608
0.484,0.496,-0.75,36.619
0.484,0.496,-0.75,36.63
0.488,0.504,-0.75,36.641
0.473,0.496,-0.742,36.652
0.473,0.496,-0.75,36.663
0.469,0.5,-0.754,36.674
0.469,0.496,-0.75,36.685
0.477,0.492,-0.754,36.696
0.477,0.492,-0.75,36.707
0.48,0.492,-0.742,36.718
0.484,0.496,-0.742,36.729
0.48,0.492,-0.746,36.74
0.477,0.5,-0.75,36.751
0.48,0.492,-0.75,36.762
0.484,0.492,-0.75,36.773
0.484,0.492,-0.746,36.784
0.484,0.5,-0.746,36.795
0.484,0.496,-0.746,36.806
0.477,0.5,-0.742,36.817
0.477,0.504,-0.742,36.828
0.477,0.504,-0.746,36.839
0.473,0.5,-0.75,36.85
0.477,0.496,-0.75,36.861
0.48,0.492,-0.75,36.872
0.484,0.492,-0.75,36.883
0.477,0.496,-0.746,36.894
0.477,0.496,-0.746,36.905
0.477,0.504,-0.75,36.916
0.48,0.496,-0.746,36.927
0.48,0.5,-0.746,36.938
0.48,0.504,-0.742,36.949
0.477,0.496,-0.742,36.96
0.469,0.492,-0.742,36.971
0.465,0.496,-0.746,36.982
0.473,0.496,-0.746,36.993
0.48,0.5,-0.742,37.004
0.488,0.496,-0.75,37.015
0.492,0.5,-0.75,37.026
0.488,0.504,-0.75,37.037
0.488,0.504,-0.75,37.048
0.484,0.508,-0.746,37.059
0.48,0.504,-0.742,37.07
0.473,0.504,-0.746,37.081
0.48,0.496,-0.746,37.092
0.48,0.504,-0.75,37.103
0.48,0.496,-0.754,37.114
0.48,0.492,-0.754,37.125
0.48,0.512,-0.754,37.136
0.469,0.504,-0.746,37.147
0.461,0.504,-0.746,37.158
0.461,0.496,-0.75,37.169
0.473,0.5,-0.742,37.18
0.48,0.504,-0.742,37.191
0.48,0.504,-0.742,37.202
0.484,0.5,-0.75,37.213
0.484,0.496,-0.75,37.224
0.484,0.5,-0.746,37.235
0.484,0.5,-0.742,37.246
0.484,0.504,-0.746,37.257
0.484,0.5,-0.738,37.268
0.488,0.5,-0.742,37.279
0.484,0.5,-0.742,37.29
0.484,0.504,-0.746,37.301
0.488,0.5,-0.75,37.312
0.488,0.5,-0.754,37.323
0.484,0.496,-0.754,37.334
0.484,0.496,-0.754,37.345
0.484,0.5,-0.75,37.356
0.477,0.504,-0.75,37.367
0.477,0.504,-0.75,37.378
0.477,0.5,-0.75,37.389
0.477,0.496,-0.75,37.4
0.473,0.496,-0.75,37.411
0.465,0.5,-0.75,37.422
0.469,0.496,-0.75,37.433
0.477,0.5,-0.75,37.444
0.48,0.5,-0.746,37.455
0.48,0.504,-0.75,37.466
0.48,0.504,-0.75,37.477
0.48,0.504,-0.75,37.488
0.473,0.508,-0.75,37.499
0.48,0.5,-0.75,37.51
0.477,0.504,-0.746,37.521
0.477,0.504,-0.742,37.532
0.48,0.504,-0.746,37.543
0.477,0.5,-0.75,37.554
0.477,0.504,-0.75,37.565
0.469,0.504,-0.746,37.576
0.465,0.504,-0.75,37.587
0.469,0.5,-0.75,37.598
0.469,0.504,-0.746,37.609
0.477,0.508,-0.75,37.62
0.48,0.512,-0.758,37.631
0.477,0.496,-0.754,37.642
0.477,0.504,-0.75,37.653
0.465,0.504,-0.75,37.664
0.461,0.5,-0.742,37.675
0.465,0.5,-0.742,37.686
0.461,0.504,-0.75,37.697
0.453,0.508,-0.75,37.708
0.445,0.508,-0.75,37.719
0.449,0.508,-0.746,37.73
0.465,0.5,-0.75,37.741
0.48,0.504,-0.758,37.752
0.484,0.504,-0.758,37.763
0.496,0.504,-0.758,37.774
0.488,0.504,-0.758,37.785
0.477,0.508,-0.75,37.796
0.469,0.508,-0.746,37.807
0.469,0.508,-0.746,37.818
0.461,0.504,-0.746,37.829
0.457,0.508,-0.75,37.84
0.457,0.508,-0.75,37.851
0.461,0.5,-0.754,37.862
0.469,0.5,-0.758,37.873
0.461,0.504,-0.762,37.884
0.457,0.504,-0.758,37.895
0.449,0.504,-0.758,37.906
0.449,0.504,-0.75,37.917
0.453,0.508,-0.75,37.928
0.461,0.508,-0.754,37.939
0.457,0.508,-0.75,37.95
0.457,0.504,-0.754,37.961
0.461,0.508,-0.746,37.972
0.461,0.508,-0.75,37.983
0.461,0.508,-0.75,37.994
0.457,0.508,-0.746,38.005
0.465,0.508,-0.75,38.016
0.473,0.508,-0.75,38.027
0.469,0.508,-0.754,38.038
0.477,0.508,-0.758,38.049
0.469,0.508,-0.754,38.06
0.465,0.508,-0.75,38.071
0.461,0.508,-0.754,38.082
0.469,0.508,-0.754,38.093
0.457,0.504,-0.754,38.104
0.453,0.504,-0.754,38.115
0.457,0.516,-0.758,38.126
0.449,0.512,-0.754,38.137
0.449,0.512,-0.762,38.148
0.449,0.512,-0.754,38.159
0.453,0.508,-0.754,38.17
0.449,0.508,-0.746,38.181
0.449,0.512,-0.746,38.192
0.453,0.508,-0.75,38.203
0.449,0.512,-0.754,38.214
0.453,0.508,-0.75,38.225
0.465,0.508,-0.75,38.236
0.465,0.508,-0.746,38.247
0.457,0.508,-0.746,38.258
0.457,0.504,-0.75,38.269
0.461,0.508,-0.758,38.28
0.457,0.508,-0.754,38.291
0.461,0.504,-0.754,38.302
0.461,0.508,-0.754,38.313
0.457,0.508,-0.754,38.324
0.461,0.504,-0.754,38.335
0.461,0.504,-0.754,38.346
0.457,0.508,-0.754,38.357
0.453,0.508,-0.754,38.368
0.453,0.508,-0.754,38.379
0.449,0.508,-0.75,38.39
0.449,0.508,-0.754,38.401
0.453,0.504,-0.754,38.412
0.449,0.504,-0.75,38.423
0.449,0.504,-0.75,38.434
0.453,0.504,-0.75,38.445
0.469,0.508,-0.75,38.456
0.477,0.5,-0.75,38.467
0.477,0.504,-0.746,38.478
0.477,0.508,-0.75,38.489
0.473,0.508,-0.75,38.5
0.469,0.508,-0.75,38.511
0.465,0.508,-0.75,38.522
0.461,0.504,-0.75,38.533
0.465,0.5,-0.754,38.544
0.465,0.508,-0.758,38.555
0.461,0.504,-0.754,38.566
0.461,0.5,-0.758,38.577
0.461,0.504,-0.762,38.588
0.461,0.504,-0.754,38.599
0.453,0.504,-0.754,38.61
0.457,0.516,-0.758,38.621
0.457,0.504,-0.75,38.632
0.465,0.504,-0.758,38.643
0.473,0.504,-0.754,38.654
0.469,0.504,-0.754,38.665
0.473,0.504,-0.75,38.676
0.465,0.508,-0.75,38.687
0.465,0.508,-0.75,38.698
0.469,0.504,-0.746,38.709
0.473,0.508,-0.75,38.72
0.477,0.504,-0.754,38.731
0.48,0.5,-0.754,38.742
0.48,0.496,-0.754,38.753
0.473,0.496,-0.754,38.764
0.473,0.504,-0.762,38.775
0.465,0.504,-0.758,38.786
0.465,0.5,-0.754,38.797
0.461,0.5,-0.762,38.808
0.461,0.5,-0.758,38.819
0.461,0.504,-0.758,38.83
0.457,0.508,-0.758,38.841
0.461,0.504,-0.758,38.852
0.461,0.504,-0.754,38.863
0.461,0.504,-0.758,38.874
0.461,0.5,-0.754,38.885
0.469,0.496,-0.754,38.896
0.469,0.5,-0.754,38.907
0.473,0.504,-0.754,38.918
0.473,0.5,-0.754,38.929
0.469,0.5,-0.754,38.94
0.469,0.5,-0.75,38.951
0.465,0.5,-0.754,38.962
0.473,0.504,-0.75,38.973
0.473,0.5,-0.75,38.984
0.473,0.504,-0.754,38.995
0.473,0.504,-0.758,39.006
0.477,0.5,-0.762,39.017
0.473,0.5,-0.758,39.028
0.469,0.5,-0.754,39.039
0.469,0.504,-0.754,39.05
0.465,0.504,-0.75,39.061
0.461,0.504,-0.75,39.072
0.461,0.5,-0.754,39.083
0.469,0.504,-0.75,39.094
0.469,0.508,-0.75,39.105
0.461,0.516,-0.754,39.116
0.453,0.5,-0.746,39.127
0.461,0.504,-0.75,39.138
0.469,0.5,-0.75,39.149
0.477,0.5,-0.758,39.16
0.48,0.5,-0.766,39.171
0.484,0.5,-0.77,39.182
0.484,0.504,-0.773,39.193
0.48,0.508,-0.77,39.204
0.477,0.504,-0.758,39.215
0.469,0.504,-0.746,39.226
0.465,0.5,-0.742,39.237
0.453,0.492,-0.738,39.248
0.445,0.492,-0.738,39.259
0.441,0.492,-0.746,39.27
0.453,0.492,-0.75,39.281
0.469,0.5,-0.758,39.292
0.477,0.504,-0.754,39.303
0.477,0.5,-0.762,39.314
0.469,0.504,-0.758,39.325
0.469,0.504,-0.75,39.336
0.465,0.504,-0.746,39.347
0.465,0.504,-0.746,39.358
0.465,0.496,-0.754,39.369
0.461,0.492,-0.75,39.38
0.461,0.492,-0.754,39.391
0.469,0.492,-0.758,39.402
0.473,0.504,-0.762,39.413
0.48,0.504,-0.754,39.424
0.48,0.504,-0.754,39.435
0.48,0.508,-0.75,39.446
0.48,0.508,-0.754,39.457
0.48,0.504,-0.773,39.468
0.492,0.508,-0.789,39.479
0.512,0.523,-0.797,39.49
0.516,0.531,-0.801,39.501
0.508,0.539,-0.801,39.512
0.496,0.555,-0.785,39.523
0.5,0.566,-0.773,39.534
0.504,0.574,-0.758,39.545
0.504,0.57,-0.754,39.556
0.492,0.59,-0.738,39.567
0.469,0.637,-0.754,39.578
0.445,0.684,-0.77,39.589
0.414,0.727,-0.789,39.6
0.379,0.781,-0.797,39.611
0.363,0.805,-0.785,39.622
0.375,0.828,-0.77,39.633
0.402,0.855,-0.762,39.644
0.414,0.879,-0.777,39.655
0.359,0.902,-0.797,39.666
0.285,0.941,-0.82,39.677
0.215,1.004,-0.824,39.688
0.203,1.09,-0.789,39.699
0.305,1.152,-0.695,39.71
0.418,1.137,-0.613,39.721
0.445,1.074,-0.566,39.732
0.379,1.012,-0.531,39.743
0.293,0.953,-0.516,39.754
0.254,0.871,-0.516,39.765
0.273,0.781,-0.504,39.776
0.32,0.703,-0.492,39.787
0.371,0.629,-0.48,39.798
0.426,0.563,-0.473,39.809
0.488,0.496,-0.48,39.82
0.563,0.418,-0.484,39.831
0.602,0.344,-0.488,39.842
0.609,0.266,-0.484,39.853
0.57,0.203,-0.488,39.864
0.492,0.16,-0.5,39.875
0.41,0.148,-0.508,39.886
0.328,0.164,-0.508,39.897
0.277,0.207,-0.477,39.908
0.262,0.215,-0.41,39.919
0.285,0.18,-0.379,39.93
0.332,0.094,-0.383,39.941
0.371,-0.023,-0.438,39.952
0.387,-0.156,-0.512,39.963
0.348,-0.27,-0.566,39.974
0.328,-0.379,-0.594,39.985
0.363,-0.477,-0.609,39.996
0.426,-0.559,-0.605,40.007
0.48,-0.652,-0.629,40.018
0.512,-0.75,-0.695,40.029
0.484,-0.836,-0.762,40.04
0.414,-0.914,-0.809,40.051
0.336,-0.977,-0.855,40.062
0.273,-1.016,-0.875,40.073
0.266,-1.027,-0.891,40.084
0.289,-1.07,-1.02,40.095
0.27,-1.145,-1.152,40.106
0.113,-1.254,-1.25,40.117
-0.168,-1.332,-1.277,40.128
-0.34,-1.359,-1.195,40.139
-0.219,-1.285,-1.027,40.15
0.074,-1.152,-0.824,40.161
0.32,-1.035,-0.664,40.172
0.445,-0.941,-0.586,40.183
0.449,-0.863,-0.555,40.194
0.391,-0.813,-0.566,40.205
0.313,-0.793,-0.594,40.216
0.27,-0.777,-0.621,40.227
0.246,-0.742,-0.613,40.238
0.223,-0.695,-0.582,40.249
0.203,-0.648,-0.559,40.26
0.207,-0.609,-0.539,40.271
0.215,-0.586,-0.516,40.282
0.199,-0.586,-0.516,40.293
0.148,-0.59,-0.523,40.304
0.051,-0.613,-0.551,40.315
-0.074,-0.656,-0.586,40.326
-0.191,-0.695,-0.617,40.337
-0.273,-0.727,-0.641,40.348
-0.297,-0.746,-0.645,40.359
-0.254,-0.766,-0.656,40.37
-0.148,-0.777,-0.648,40.381
0,-0.781,-0.629,40.392
0.16,-0.758,-0.578,40.403
0.297,-0.73,-0.551,40.414
0.371,-0.727,-0.559,40.425
0.363,-0.75,-0.594,40.436
0.281,-0.797,-0.637,40.447
0.215,-0.84,-0.668,40.458
0.184,-0.852,-0.676,40.469
0.191,-0.836,-0.684,40.48
0.129,-0.836,-0.84,40.491
-0.07,-0.938,-1.051,40.502
-0.195,-0.969,-0.898,40.513
0.109,-0.844,-0.641,40.524
0.523,-0.73,-0.414,40.535
0.738,-0.68,-0.254,40.546
0.754,-0.699,-0.16,40.557
0.781,-0.773,-0.137,40.568
0.82,-0.852,-0.176,40.579
0.805,-0.887,-0.277,40.59
0.703,-0.891,-0.418,40.601
0.555,-0.914,-0.539,40.612
0.453,-0.938,-0.621,40.623
0.441,-0.957,-0.668,40.634
0.492,-0.973,-0.695,40.645
0.566,-0.977,-0.688,40.656
0.609,-0.957,-0.648,40.667
0.59,-0.926,-0.586,40.678
0.531,-0.871,-0.527,40.689
0.48,-0.813,-0.477,40.7
0.457,-0.77,-0.445,40.711
0.461,-0.746,-0.418,40.722
0.512,-0.734,-0.391,40.733
0.551,-0.707,-0.379,40.744
0.531,-0.66,-0.371,40.755
0.488,-0.621,-0.387,40.766
0.449,-0.617,-0.438,40.777
0.426,-0.645,-0.504,40.788
0.441,-0.672,-0.578,40.799
0.496,-0.664,-0.66,40.81
0.539,-0.609,-0.727,40.821
0.582,-0.543,-0.758,40.832
0.641,-0.484,-0.777,40.843
0.699,-0.441,-0.797,40.854
0.742,-0.418,-0.832,40.865
0.719,-0.418,-0.883,40.876
0.633,-0.414,-0.922,40.887
0.531,-0.41,-0.949,40.898
0.449,-0.414,-0.957,40.909
0.406,-0.402,-0.934,40.92
0.426,-0.371,-0.91,40.931
0.488,-0.316,-0.914,40.942
0.551,-0.234,-0.953,40.953
0.555,-0.152,-1.004,40.964
0.527,-0.09,-1.035,40.975
0.527,-0.043,-1.035,40.986
0.563,0.016,-0.996,40.997
0.609,0.086,-0.938,41.008
0.633,0.148,-0.887,41.019
0.598,0.207,-0.848,41.03
0.57,0.207,-0.797,41.041
0.625,0.188,-0.738,41.052
0.707,0.168,-0.668,41.063
0.73,0.156,-0.633,41.074
0.691,0.113,-0.602,41.085
0.637,0.063,-0.582,41.096
0.605,-0.004,-0.563,41.107
0.613,-0.047,-0.559,41.118
0.637,-0.09,-0.559,41.129
0.629,-0.125,-0.551,41.14
0.602,-0.141,-0.531,41.151
0.582,-0.145,-0.508,41.162
0.559,-0.121,-0.5,41.173
0.488,-0.066,-0.523,41.184
0.379,-0.023,-0.531,41.195
0.336,-0.027,-0.512,41.206
0.398,-0.066,-0.48,41.217
0.516,-0.082,-0.461,41.228
0.582,-0.055,-0.449,41.239
0.602,-0.031,-0.461,41.25
0.621,-0.035,-0.492,41.261
0.656,-0.051,-0.531,41.272
0.715,-0.059,-0.563,41.283
0.785,-0.063,-0.578,41.294
0.863,-0.074,-0.605,41.305
0.895,-0.082,-0.648,41.316
0.871,-0.09,-0.688,41.327
0.855,-0.102,-0.707,41.338
0.895,-0.109,-0.707,41.349
0.941,-0.125,-0.707,41.36
0.98,-0.137,-0.707,41.371
1.008,-0.152,-0.707,41.382
1.016,-0.16,-0.695,41.393
1.008,-0.172,-0.676,41.404
0.977,-0.188,-0.672,41.415
0.949,-0.188,-0.672,41.426
0.934,-0.18,-0.668,41.437
0.906,-0.176,-0.652,41.448
0.875,-0.176,-0.637,41.459
0.879,-0.172,-0.613,41.47
0.891,-0.164,-0.59,41.481
0.898,-0.16,-0.574,41.492
0.902,-0.168,-0.563,41.503
0.867,-0.168,-0.551,41.514
0.852,-0.176,-0.551,41.525
0.871,-0.172,-0.547,41.536
0.863,-0.156,-0.539,41.547
0.832,-0.164,-0.535,41.558
0.801,-0.168,-0.531,41.569
0.785,-0.168,-0.527,41.58
0.77,-0.164,-0.52,41.591
0.75,-0.176,-0.512,41.602
0.738,-0.18,-0.52,41.613
0.734,-0.184,-0.523,41.624
0.754,-0.195,-0.523,41.635
0.77,-0.203,-0.527,41.646
0.766,-0.211,-0.535,41.657
0.762,-0.223,-0.543,41.668
0.777,-0.234,-0.543,41.679
0.789,-0.238,-0.543,41.69
0.789,-0.242,-0.547,41.701
0.793,-0.242,-0.559,41.712
0.797,-0.242,-0.57,41.723
0.801,-0.238,-0.578,41.734
0.828,-0.238,-0.582,41.745
0.855,-0.238,-0.586,41.756
0.883,-0.23,-0.59,41.767
0.895,-0.23,-0.59,41.778
0.906,-0.223,-0.59,41.789
0.918,-0.223,-0.586,41.8
0.93,-0.215,-0.586,41.811
0.922,-0.227,-0.59,41.822
0.91,-0.23,-0.598,41.833
0.902,-0.234,-0.594,41.844
0.918,-0.227,-0.59,41.855
0.93,-0.219,-0.578,41.866
0.93,-0.215,-0.563,41.877
0.922,-0.211,-0.555,41.888
0.906,-0.207,-0.551,41.899
0.891,-0.203,-0.543,41.91
0.871,-0.199,-0.543,41.921
0.836,-0.195,-0.543,41.932
0.809,-0.195,-0.543,41.943
0.801,-0.191,-0.543,41.954
0.801,-0.199,-0.539,41.965
0.809,-0.195,-0.539,41.976
0.809,-0.191,-0.531,41.987
0.809,-0.191,-0.527,41.998
0.813,-0.184,-0.531,42.009
0.805,-0.18,-0.531,42.02
0.789,-0.176,-0.535,42.031
0.773,-0.176,-0.539,42.042
0.766,-0.172,-0.539,42.053
0.773,-0.172,-0.547,42.064
0.777,-0.168,-0.543,42.075
0.777,-0.168,-0.551,42.086
0.781,-0.172,-0.551,42.097
0.793,-0.172,-0.559,42.108
0.797,-0.172,-0.563,42.119
0.801,-0.168,-0.559,42.13
0.809,-0.168,-0.563,42.141
0.824,-0.168,-0.566,42.152
0.836,-0.164,-0.57,42.163
0.844,-0.156,-0.574,42.174
0.863,-0.164,-0.574,42.185
0.879,-0.164,-0.574,42.196
0.887,-0.16,-0.578,42.207
0.879,-0.156,-0.574,42.218
0.887,-0.168,-0.574,42.229
0.891,-0.172,-0.566,42.24
0.887,-0.172,-0.566,42.251
0.879,-0.168,-0.563,42.262
0.871,-0.164,-0.559,42.273
0.859,-0.156,-0.551,42.284
0.848,-0.16,-0.547,42.295
0.84,-0.164,-0.543,42.306
0.84,-0.164,-0.535,42.317
0.844,-0.168,-0.535,42.328
0.836,-0.168,-0.531,42.339
0.828,-0.164,-0.535,42.35
0.82,-0.168,-0.535,42.361
0.813,-0.168,-0.527,42.372
0.82,-0.172,-0.531,42.383
0.828,-0.172,-0.535,42.394
0.828,-0.172,-0.535,42.405
0.832,-0.172,-0.539,42.416
0.828,-0.172,-0.539,42.427
0.828,-0.176,-0.535,42.438
0.832,-0.176,-0.531,42.449
0.832,-0.18,-0.531,42.46
0.832,-0.18,-0.535,42.471
0.832,-0.18,-0.539,42.482
0.824,-0.18,-0.543,42.493
0.836,-0.188,-0.543,42.504
0.84,-0.18,-0.547,42.515
0.859,-0.188,-0.539,42.526
0.871,-0.188,-0.543,42.537
0.875,-0.184,-0.539,42.548
0.883,-0.184,-0.539,42.559
0.871,-0.188,-0.539,42.57
0.883,-0.184,-0.539,42.581
0.883,-0.195,-0.527,42.592
0.891,-0.184,-0.531,42.603
0.887,-0.18,-0.527,42.614
0.887,-0.18,-0.52,42.625
0.879,-0.18,-0.52,42.636
0.867,-0.176,-0.523,42.647
0.879,-0.172,-0.516,42.658
0.895,-0.164,-0.512,42.669
0.891,-0.164,-0.512,42.68
0.879,-0.164,-0.508,42.691
0.879,-0.16,-0.512,42.702
0.867,-0.156,-0.516,42.713
0.859,-0.156,-0.512,42.724
0.859,-0.164,-0.508,42.735
0.863,-0.164,-0.508,42.746
0.863,-0.164,-0.508,42.757
0.863,-0.168,-0.508,42.768
0.855,-0.168,-0.508,42.779
0.848,-0.164,-0.508,42.79
0.844,-0.168,-0.512,42.801
0.848,-0.176,-0.512,42.812
0.855,-0.176,-0.516,42.823
0.859,-0.176,-0.523,42.834
0.863,-0.184,-0.527,42.845
0.863,-0.184,-0.531,42.856
0.863,-0.184,-0.535,42.867
0.875,-0.184,-0.531,42.878
0.879,-0.18,-0.523,42.889
0.875,-0.176,-0.52,42.9
0.875,-0.176,-0.523,42.911
0.875,-0.172,-0.52,42.922
0.879,-0.172,-0.52,42.933
0.871,-0.168,-0.516,42.944
0.875,-0.168,-0.516,42.955
0.879,-0.164,-0.516,42.966
0.883,-0.168,-0.512,42.977
0.883,-0.168,-0.508,42.988
0.871,-0.172,-0.504,42.999
0.863,-0.164,-0.508,43.01
0.859,-0.16,-0.508,43.021
0.867,-0.164,-0.504,43.032
0.871,-0.164,-0.508,43.043
0.887,-0.164,-0.504,43.054
0.887,-0.16,-0.504,43.065
0.883,-0.152,-0.508,43.076
0.863,-0.16,-0.504,43.087
0.859,-0.164,-0.508,43.098
0.855,-0.16,-0.512,43.109
0.848,-0.16,-0.508,43.12
0.852,-0.164,-0.504,43.131
0.855,-0.168,-0.504,43.142
0.855,-0.164,-0.504,43.153
0.867,-0.168,-0.504,43.164
0.879,-0.172,-0.508,43.175
0.875,-0.168,-0.508,43.186
0.879,-0.172,-0.508,43.197
0.883,-0.176,-0.508,43.208
0.883,-0.172,-0.504,43.219
0.879,-0.172,-0.508,43.23
0.867,-0.172,-0.512,43.241
0.863,-0.172,-0.516,43.252
0.871,-0.16,-0.512,43.263
0.887,-0.164,-0.508,43.274
0.891,-0.164,-0.504,43.285
0.895,-0.16,-0.504,43.296
0.891,-0.164,-0.504,43.307
0.875,-0.164,-0.504,43.318
0.867,-0.168,-0.504,43.329
0.867,-0.164,-0.508,43.34
0.867,-0.164,-0.516,43.351
0.863,-0.164,-0.52,43.362
0.871,-0.164,-0.52,43.373
0.867,-0.164,-0.52,43.384
0.867,-0.172,-0.516,43.395
0.863,-0.172,-0.516,43.406
0.867,-0.176,-0.512,43.417
0.863,-0.176,-0.508,43.428
0.859,-0.176,-0.508,43.439
0.84,-0.172,-0.512,43.45
0.844,-0.176,-0.512,43.461
0.852,-0.172,-0.508,43.472
0.859,-0.176,-0.508,43.483
0.855,-0.172,-0.508,43.494
0.855,-0.176,-0.508,43.505
0.859,-0.172,-0.508,43.516
0.867,-0.168,-0.504,43.527
0.887,-0.168,-0.504,43.538
0.887,-0.164,-0.504,43.549
0.883,-0.164,-0.504,43.56
0.879,-0.148,-0.504,43.571
0.895,-0.156,-0.496,43.582
0.914,-0.145,-0.508,43.593
0.914,-0.133,-0.52,43.604
0.938,-0.117,-0.523,43.615
0.961,-0.094,-0.527,43.626
0.93,-0.09,-0.52,43.637
0.91,-0.109,-0.527,43.648
0.957,-0.121,-0.551,43.659
1.031,-0.137,-0.578,43.67
1.094,-0.16,-0.617,43.681
1.137,-0.199,-0.684,43.692
1.137,-0.254,-0.762,43.703
1.07,-0.316,-0.852,43.714
1.027,-0.367,-0.938,43.725
1.004,-0.395,-1.012,43.736
0.988,-0.43,-1.039,43.747
1.004,-0.465,-1.027,43.758
1.039,-0.492,-0.988,43.769
1.09,-0.52,-0.934,43.78
1.125,-0.535,-0.887,43.791
1.137,-0.539,-0.852,43.802
1.113,-0.539,-0.824,43.813
1.066,-0.539,-0.809,43.824
0.988,-0.547,-0.785,43.835
0.91,-0.555,-0.758,43.846
0.848,-0.559,-0.711,43.857
0.805,-0.566,-0.688,43.868
0.719,-0.563,-0.664,43.879
0.602,-0.559,-0.637,43.89
0.48,-0.551,-0.621,43.901
0.387,-0.535,-0.602,43.912
0.336,-0.508,-0.574,43.923
0.344,-0.484,-0.539,43.934
0.367,-0.445,-0.508,43.945
0.414,-0.418,-0.48,43.956
0.449,-0.391,-0.477,43.967
0.453,-0.379,-0.488,43.978
0.438,-0.363,-0.512,43.989
0.383,-0.344,-0.52,44
0.332,-0.328,-0.52,44.011
0.297,-0.297,-0.508,44.022
0.262,-0.27,-0.469,44.033
0.246,-0.23,-0.461,44.044
0.227,-0.191,-0.461,44.055
0.195,-0.164,-0.465,44.066
0.152,-0.188,-0.477,44.077
0.102,-0.184,-0.5,44.088
0.031,-0.164,-0.5,44.099
-0.055,-0.141,-0.5,44.11
-0.164,-0.125,-0.512,44.121
-0.254,-0.102,-0.531,44.132
-0.254,-0.078,-0.582,44.143
-0.191,-0.035,-0.652,44.154
-0.133,0.039,-0.707,44.165
-0.086,0.133,-0.746,44.176
-0.094,0.223,-0.797,44.187
-0.184,0.316,-0.844,44.198
-0.289,0.406,-0.863,44.209
-0.309,0.496,-0.844,44.22
-0.25,0.574,-0.809,44.231
-0.188,0.652,-0.754,44.242
-0.152,0.734,-0.707,44.253
-0.125,0.789,-0.668,44.264
-0.094,0.797,-0.637,44.275
-0.055,0.777,-0.621,44.286
-0.035,0.746,-0.621,44.297
-0.047,0.719,-0.66,44.308
-0.078,0.699,-0.715,44.319
-0.102,0.676,-0.762,44.33
-0.137,0.664,-0.809,44.341
-0.172,0.668,-0.84,44.352
-0.211,0.695,-0.867,44.363
-0.238,0.742,-0.898,44.374
-0.242,0.789,-0.926,44.385
-0.211,0.828,-0.969,44.396
-0.168,0.871,-1.043,44.407
-0.172,0.918,-1.16,44.418
-0.191,1.02,-1.336,44.429
-0.25,1.117,-1.449,44.44
-0.281,1.125,-1.406,44.451
-0.152,1.078,-1.262,44.462
0.063,1.102,-1.09,44.473
0.223,1.168,-0.934,44.484
0.215,1.18,-0.801,44.495
0.117,1.098,-0.711,44.506
-0.012,0.988,-0.633,44.517
-0.148,0.891,-0.57,44.528
-0.258,0.813,-0.52,44.539
-0.344,0.734,-0.492,44.55
-0.387,0.68,-0.488,44.561
-0.391,0.625,-0.492,44.572
-0.375,0.594,-0.523,44.583
-0.359,0.566,-0.566,44.594
-0.336,0.543,-0.609,44.605
-0.309,0.531,-0.648,44.616
-0.258,0.527,-0.684,44.627
-0.215,0.523,-0.707,44.638
-0.188,0.523,-0.723,44.649
-0.172,0.52,-0.73,44.66
-0.16,0.52,-0.742,44.671
-0.148,0.535,-0.754,44.682
-0.145,0.559,-0.766,44.693
-0.145,0.566,-0.773,44.704
-0.141,0.57,-0.789,44.715
-0.152,0.578,-0.805,44.726
-0.176,0.574,-0.832,44.737
-0.191,0.566,-0.867,44.748
-0.199,0.559,-0.898,44.759
-0.203,0.555,-0.93,44.77
-0.219,0.547,-0.965,44.781
-0.227,0.535,-0.988,44.792
-0.219,0.535,-0.988,44.803
-0.219,0.531,-0.988,44.814
-0.227,0.531,-0.98,44.825
-0.246,0.531,-0.969,44.836
-0.262,0.531,-0.953,44.847
-0.27,0.535,-0.938,44.858
-0.27,0.543,-0.922,44.869
-0.254,0.551,-0.906,44.88
-0.227,0.555,-0.883,44.891
-0.191,0.555,-0.863,44.902
-0.164,0.559,-0.84,44.913
-0.152,0.555,-0.824,44.924
-0.145,0.555,-0.813,44.935
-0.141,0.551,-0.797,44.946
-0.148,0.551,-0.781,44.957
-0.148,0.555,-0.762,44.968
-0.16,0.559,-0.746,44.979
-0.16,0.566,-0.746,44.99
-0.16,0.574,-0.742,45.001
-0.168,0.582,-0.738,45.012
-0.18,0.582,-0.742,45.023
-0.18,0.586,-0.746,45.034
-0.164,0.602,-0.754,45.045
-0.148,0.629,-0.773,45.056
-0.148,0.621,-0.793,45.067
-0.164,0.621,-0.813,45.078
-0.195,0.633,-0.828,45.089
-0.223,0.633,-0.828,45.1
-0.246,0.629,-0.836,45.111
-0.266,0.621,-0.836,45.122
-0.281,0.613,-0.824,45.133
-0.293,0.594,-0.82,45.144
-0.305,0.586,-0.824,45.155
-0.324,0.578,-0.816,45.166
-0.336,0.563,-0.813,45.177
-0.348,0.551,-0.809,45.188
-0.359,0.547,-0.805,45.199
-0.379,0.551,-0.801,45.21
-0.383,0.551,-0.785,45.221
-0.367,0.555,-0.773,45.232
-0.352,0.563,-0.77,45.243
-0.344,0.574,-0.77,45.254
-0.34,0.59,-0.773,45.265
-0.344,0.59,-0.777,45.276
-0.336,0.586,-0.785,45.287
-0.32,0.582,-0.789,45.298
-0.301,0.586,-0.797,45.309
-0.273,0.582,-0.805,45.32
-0.254,0.582,-0.813,45.331
-0.246,0.578,-0.828,45.342
-0.242,0.574,-0.84,45.353
-0.23,0.57,-0.848,45.364
-0.234,0.57,-0.848,45.375
-0.219,0.555,-0.844,45.386
-0.211,0.551,-0.84,45.397
-0.215,0.547,-0.832,45.408
-0.234,0.543,-0.824,45.419
-0.258,0.539,-0.813,45.43
-0.273,0.535,-0.805,45.441
-0.281,0.535,-0.793,45.452
-0.281,0.535,-0.777,45.463
-0.285,0.543,-0.773,45.474
-0.289,0.551,-0.77,45.485
-0.293,0.555,-0.77,45.496
-0.301,0.563,-0.77,45.507
-0.301,0.566,-0.773,45.518
-0.293,0.578,-0.773,45.529
-0.281,0.586,-0.785,45.54
-0.27,0.59,-0.789,45.551
-0.262,0.586,-0.789,45.562
-0.262,0.598,-0.797,45.573
-0.27,0.602,-0.801,45.584
-0.277,0.602,-0.805,45.595
-0.285,0.605,-0.813,45.606
-0.293,0.605,-0.816,45.617
-0.289,0.609,-0.816,45.628
-0.293,0.609,-0.82,45.639
-0.297,0.605,-0.816,45.65
-0.297,0.594,-0.816,45.661
-0.289,0.59,-0.816,45.672
-0.273,0.582,-0.816,45.683
-0.254,0.574,-0.828,45.694
-0.25,0.574,-0.828,45.705
-0.246,0.57,-0.824,45.716
-0.234,0.563,-0.82,45.727
-0.227,0.559,-0.816,45.738
-0.227,0.559,-0.813,45.749
-0.238,0.555,-0.805,45.76
-0.246,0.559,-0.805,45.771
-0.246,0.559,-0.797,45.782
-0.242,0.563,-0.793,45.793
-0.246,0.566,-0.789,45.804
-0.258,0.57,-0.789,45.815
-0.266,0.57,-0.785,45.826
-0.266,0.57,-0.777,45.837
-0.262,0.57,-0.781,45.848
-0.266,0.57,-0.785,45.859
-0.273,0.574,-0.797,45.87
-0.273,0.574,-0.797,45.881
-0.281,0.578,-0.801,45.892
-0.285,0.59,-0.809,45.903
-0.293,0.582,-0.813,45.914
-0.285,0.578,-0.824,45.925
-0.277,0.582,-0.824,45.936
-0.266,0.59,-0.82,45.947
-0.258,0.582,-0.824,45.958
-0.25,0.582,-0.824,45.969
-0.238,0.586,-0.824,45.98
-0.23,0.586,-0.828,45.991
-0.238,0.586,-0.824,46.002
-0.242,0.586,-0.82,46.013
-0.242,0.586,-0.82,46.024
-0.246,0.582,-0.816,46.035
-0.242,0.59,-0.813,46.046
-0.246,0.578,-0.805,46.057
-0.25,0.582,-0.809,46.068
-0.25,0.578,-0.805,46.079
-0.25,0.574,-0.801,46.09
-0.25,0.574,-0.801,46.101
-0.25,0.57,-0.801,46.112
-0.258,0.57,-0.797,46.123
-0.258,0.574,-0.793,46.134
-0.266,0.578,-0.789,46.145
-0.266,0.582,-0.789,46.156
-0.266,0.578,-0.797,46.167
-0.266,0.574,-0.797,46.178
-0.258,0.578,-0.801,46.189
-0.254,0.574,-0.805,46.2
-0.25,0.578,-0.805,46.211
-0.258,0.574,-0.809,46.222
-0.254,0.578,-0.809,46.233
-0.254,0.57,-0.813,46.244
-0.246,0.57,-0.809,46.255
-0.246,0.574,-0.816,46.266
-0.25,0.574,-0.816,46.277
-0.254,0.578,-0.813,46.288
-0.254,0.578,-0.813,46.299
-0.25,0.574,-0.813,46.31
-0.254,0.582,-0.813,46.321
-0.254,0.586,-0.813,46.332
-0.262,0.578,-0.809,46.343
-0.262,0.578,-0.809,46.354
-0.258,0.574,-0.809,46.365
-0.258,0.578,-0.809,46.376
-0.258,0.582,-0.805,46.387
-0.25,0.578,-0.805,46.398
-0.254,0.582,-0.801,46.409
-0.25,0.578,-0.805,46.42
-0.254,0.574,-0.805,46.431
-0.258,0.574,-0.809,46.442
-0.258,0.574,-0.809,46.453
-0.258,0.574,-0.805,46.464
-0.25,0.574,-0.801,46.475
-0.25,0.57,-0.797,46.486
-0.25,0.566,-0.797,46.497
-0.262,0.574,-0.797,46.508
-0.258,0.57,-0.801,46.519
-0.262,0.574,-0.801,46.53
-0.266,0.582,-0.801,46.541
-0.273,0.578,-0.801,46.552
-0.273,0.578,-0.805,46.563
-0.273,0.582,-0.805,46.574
-0.266,0.574,-0.805,46.585
-0.254,0.582,-0.809,46.596
-0.242,0.578,-0.809,46.607
-0.234,0.578,-0.805,46.618
-0.23,0.574,-0.816,46.629
-0.234,0.57,-0.816,46.64
-0.242,0.574,-0.816,46.651
-0.238,0.578,-0.813,46.662
-0.227,0.578,-0.813,46.673
-0.23,0.582,-0.813,46.684
-0.242,0.582,-0.816,46.695
-0.262,0.578,-0.813,46.706
-0.262,0.57,-0.813,46.717
-0.262,0.57,-0.809,46.728
-0.266,0.574,-0.809,46.739
-0.262,0.578,-0.805,46.75
-0.262,0.574,-0.805,46.761
-0.258,0.574,-0.805,46.772
-0.25,0.574,-0.801,46.783
-0.242,0.578,-0.801,46.794
-0.242,0.586,-0.801,46.805
-0.254,0.59,-0.805,46.816
-0.258,0.578,-0.805,46.827
-0.25,0.582,-0.801,46.838
-0.246,0.578,-0.805,46.849
-0.242,0.582,-0.809,46.86
-0.242,0.582,-0.809,46.871
-0.242,0.582,-0.809,46.882
-0.242,0.578,-0.809,46.893
-0.242,0.574,-0.805,46.904
-0.246,0.578,-0.805,46.915
-0.25,0.574,-0.809,46.926
-0.254,0.574,-0.805,46.937
-0.258,0.582,-0.809,46.948
-0.254,0.574,-0.809,46.959
-0.246,0.574,-0.809,46.97
-0.242,0.582,-0.809,46.981
-0.242,0.578,-0.813,46.992
-0.25,0.578,-0.809,47.003
-0.246,0.578,-0.809,47.014
-0.25,0.586,-0.809,47.025
-0.246,0.598,-0.809,47.036
-0.258,0.59,-0.805,47.047
-0.254,0.586,-0.805,47.058
-0.254,0.586,-0.809,47.069
-0.258,0.578,-0.805,47.08
-0.25,0.578,-0.801,47.091
-0.25,0.582,-0.801,47.102
-0.242,0.578,-0.793,47.113
-0.242,0.574,-0.797,47.124
-0.25,0.578,-0.801,47.135
-0.254,0.582,-0.801,47.146
-0.254,0.582,-0.801,47.157
-0.254,0.582,-0.801,47.168
-0.266,0.582,-0.801,47.179
-0.27,0.586,-0.809,47.19
-0.27,0.578,-0.813,47.201
-0.262,0.578,-0.809,47.212
-0.246,0.582,-0.805,47.223
-0.238,0.586,-0.809,47.234
-0.23,0.586,-0.809,47.245
-0.227,0.582,-0.809,47.256
-0.234,0.578,-0.813,47.267
-0.242,0.586,-0.809,47.278
-0.238,0.586,-0.805,47.289
-0.242,0.586,-0.805,47.3
-0.246,0.59,-0.801,47.311
-0.262,0.59,-0.801,47.322
-0.27,0.582,-0.805,47.333
-0.273,0.578,-0.805,47.344
-0.273,0.574,-0.801,47.355
-0.27,0.574,-0.801,47.366
-0.262,0.574,-0.801,47.377
-0.25,0.582,-0.801,47.388
-0.246,0.586,-0.801,47.399
-0.25,0.59,-0.801,47.41
-0.246,0.59,-0.801,47.421
-0.25,0.59,-0.797,47.432
-0.258,0.594,-0.793,47.443
-0.266,0.59,-0.797,47.454
-0.266,0.59,-0.797,47.465
-0.262,0.59,-0.801,47.476
-0.254,0.59,-0.801,47.487
-0.25,0.59,-0.801,47.498
-0.246,0.586,-0.805,47.509
-0.246,0.586,-0.801,47.52
-0.234,0.594,-0.801,47.531
-0.238,0.586,-0.801,47.542
-0.246,0.586,-0.805,47.553
-0.246,0.59,-0.801,47.564
-0.254,0.586,-0.801,47.575
-0.262,0.59,-0.805,47.586
-0.266,0.586,-0.805,47.597
-0.258,0.586,-0.801,47.608
-0.262,0.586,-0.801,47.619
-0.266,0.586,-0.801,47.63
-0.258,0.582,-0.801,47.641
-0.25,0.586,-0.801,47.652
-0.25,0.59,-0.801,47.663
-0.25,0.586,-0.801,47.674
-0.254,0.582,-0.801,47.685
-0.254,0.582,-0.805,47.696
-0.254,0.586,-0.805,47.707
-0.246,0.586,-0.801,47.718
-0.246,0.586,-0.797,47.729
-0.242,0.59,-0.797,47.74
-0.254,0.594,-0.801,47.751
-0.258,0.586,-0.801,47.762
-0.266,0.582,-0.797,47.773
-0.262,0.582,-0.793,47.784
-0.27,0.586,-0.797,47.795
-0.27,0.586,-0.801,47.806
-0.27,0.582,-0.801,47.817
-0.266,0.582,-0.801,47.828
-0.25,0.582,-0.801,47.839
-0.234,0.59,-0.805,47.85
-0.227,0.586,-0.801,47.861
-0.23,0.582,-0.805,47.872
-0.242,0.586,-0.805,47.883
-0.25,0.594,-0.805,47.894
-0.242,0.594,-0.801,47.905
-0.25,0.594,-0.805,47.916
-0.262,0.594,-0.801,47.927
-0.266,0.586,-0.801,47.938
-0.27,0.586,-0.801,47.949
-0.27,0.59,-0.797,47.96
-0.266,0.582,-0.801,47.971
-0.254,0.586,-0.801,47.982
-0.254,0.586,-0.801,47.993
-0.254,0.59,-0.801,48.004
-0.246,0.582,-0.801,48.015
-0.238,0.598,-0.805,48.026
-0.242,0.594,-0.801,48.037
-0.242,0.594,-0.801,48.048
-0.246,0.594,-0.801,48.059
-0.254,0.59,-0.801,48.07
-0.262,0.594,-0.801,48.081
-0.258,0.594,-0.801,48.092
-0.25,0.59,-0.797,48.103
-0.246,0.586,-0.801,48.114
-0.25,0.594,-0.801,48.125
-0.254,0.594,-0.801,48.136
-0.25,0.582,-0.801,48.147
-0.246,0.59,-0.805,48.158
-0.25,0.59,-0.805,48.169
-0.258,0.586,-0.805,48.18
-0.262,0.586,-0.801,48.191
-0.258,0.582,-0.801,48.202
-0.258,0.586,-0.801,48.213
-0.25,0.582,-0.801,48.224
-0.246,0.578,-0.801,48.235
-0.246,0.586,-0.801,48.246
-0.242,0.582,-0.801,48.257
-0.246,0.586,-0.801,48.268
-0.254,0.582,-0.805,48.279
-0.254,0.582,-0.805,48.29
-0.254,0.586,-0.805,48.301
-0.25,0.586,-0.809,48.312
-0.25,0.59,-0.805,48.323
-0.246,0.59,-0.805,48.334
-0.238,0.59,-0.801,48.345
-0.23,0.586,-0.805,48.356
-0.238,0.59,-0.805,48.367
-0.246,0.586,-0.805,48.378
-0.242,0.582,-0.805,48.389
-0.25,0.582,-0.805,48.4
-0.262,0.586,-0.805,48.411
-0.27,0.59,-0.805,48.422
-0.27,0.59,-0.809,48.433
-0.266,0.59,-0.805,48.444
-0.246,0.59,-0.805,48.455
-0.23,0.586,-0.801,48.466
-0.219,0.59,-0.801,48.477
-0.23,0.59,-0.805,48.488
-0.234,0.59,-0.809,48.499
-0.238,0.586,-0.809,48.51
-0.242,0.598,-0.805,48.521
-0.25,0.586,-0.805,48.532
-0.254,0.59,-0.805,48.543
-0.254,0.582,-0.805,48.554
-0.262,0.59,-0.805,48.565
-0.266,0.59,-0.801,48.576
-0.266,0.582,-0.801,48.587
-0.258,0.586,-0.805,48.598
-0.254,0.586,-0.805,48.609
-0.25,0.586,-0.805,48.62
-0.246,0.582,-0.801,48.631
-0.242,0.59,-0.801,48.642
-0.242,0.59,-0.801,48.653
-0.242,0.59,-0.801,48.664
-0.242,0.59,-0.801,48.675
-0.25,0.586,-0.801,48.686
-0.25,0.59,-0.805,48.697
-0.254,0.59,-0.801,48.708
-0.254,0.594,-0.801,48.719
-0.25,0.59,-0.801,48.73
-0.246,0.586,-0.805,48.741
-0.246,0.586,-0.805,48.752
-0.242,0.586,-0.809,48.763
-0.242,0.59,-0.809,48.774
-0.246,0.586,-0.805,48.785
-0.246,0.59,-0.801,48.796
-0.25,0.59,-0.801,48.807
-0.258,0.59,-0.805,48.818
-0.254,0.586,-0.809,48.829
-0.254,0.586,-0.805,48.84
-0.254,0.59,-0.805,48.851
-0.246,0.59,-0.805,48.862
-0.25,0.586,-0.805,48.873
-0.25,0.59,-0.805,48.884
-0.246,0.59,-0.805,48.895
-0.254,0.586,-0.801,48.906
-0.25,0.59,-0.805,48.917
-0.246,0.59,-0.809,48.928
-0.242,0.586,-0.805,48.939
-0.242,0.586,-0.801,48.95
-0.242,0.586,-0.797,48.961
-0.246,0.59,-0.801,48.972
-0.246,0.582,-0.801,48.983
-0.25,0.59,-0.801,48.994
-0.25,0.59,-0.801,49.005
-0.254,0.602,-0.797,49.016
-0.262,0.59,-0.797,49.027
-0.266,0.586,-0.801,49.038
-0.27,0.582,-0.805,49.049
-0.258,0.586,-0.805,49.06
-0.238,0.586,-0.805,49.071
-0.227,0.586,-0.805,49.082
-0.223,0.578,-0.805,49.093
-0.223,0.578,-0.809,49.104
-0.227,0.582,-0.813,49.115
-0.227,0.586,-0.809,49.126
-0.238,0.586,-0.809,49.137
-0.242,0.59,-0.805,49.148
-0.246,0.586,-0.801,49.159
-0.254,0.586,-0.805,49.17
-0.258,0.582,-0.805,49.181
-0.266,0.582,-0.805,49.192
-0.262,0.578,-0.805,49.203
-0.258,0.582,-0.805,49.214
-0.254,0.586,-0.805,49.225
-0.254,0.586,-0.801,49.236
-0.25,0.582,-0.801,49.247
-0.242,0.582,-0.805,49.258
-0.238,0.586,-0.805,49.269
-0.242,0.59,-0.801,49.28
-0.246,0.586,-0.801,49.291
-0.25,0.586,-0.805,49.302
-0.254,0.59,-0.805,49.313
-0.25,0.59,-0.805,49.324
-0.25,0.59,-0.801,49.335
-0.246,0.59,-0.801,49.346
-0.238,0.586,-0.801,49.357
-0.234,0.586,-0.801,49.368
-0.234,0.59,-0.805,49.379
-0.238,0.586,-0.805,49.39
-0.25,0.586,-0.805,49.401
-0.254,0.582,-0.801,49.412
-0.254,0.59,-0.801,49.423
-0.254,0.59,-0.805,49.434
-0.258,0.59,-0.805,49.445
-0.258,0.59,-0.801,49.456
-0.254,0.582,-0.805,49.467
-0.254,0.582,-0.805,49.478
-0.254,0.582,-0.805,49.489
-0.246,0.586,-0.801,49.5
-0.238,0.598,-0.805,49.511
-0.242,0.59,-0.801,49.522
-0.246,0.59,-0.805,49.533
-0.254,0.59,-0.801,49.544
-0.254,0.59,-0.801,49.555
-0.25,0.586,-0.801,49.566
-0.246,0.586,-0.801,49.577
-0.246,0.59,-0.805,49.588
-0.242,0.586,-0.805,49.599
-0.242,0.582,-0.805,49.61
-0.238,0.586,-0.805,49.621
-0.242,0.586,-0.805,49.632
-0.25,0.59,-0.805,49.643
-0.254,0.582,-0.801,49.654
-0.254,0.586,-0.797,49.665
-0.262,0.578,-0.805,49.676
-0.27,0.582,-0.805,49.687
-0.27,0.586,-0.805,49.698
-0.262,0.59,-0.805,49.709
-0.25,0.594,-0.805,49.72
-0.238,0.594,-0.805,49.731
-0.234,0.59,-0.801,49.742
-0.23,0.59,-0.805,49.753
-0.234,0.594,-0.805,49.764
-0.242,0.598,-0.805,49.775
-0.242,0.59,-0.805,49.786
-0.25,0.59,-0.801,49.797
-0.258,0.59,-0.801,49.808
-0.262,0.59,-0.801,49.819
-0.27,0.586,-0.801,49.83
-0.266,0.586,-0.797,49.841
-0.27,0.59,-0.793,49.852
-0.262,0.586,-0.797,49.863
-0.254,0.586,-0.797,49.874
-0.246,0.594,-0.801,49.885
-0.246,0.59,-0.801,49.896
-0.246,0.594,-0.801,49.907
-0.246,0.594,-0.801,49.918
-0.242,0.594,-0.797,49.929
-0.254,0.598,-0.793,49.94
-0.266,0.598,-0.797,49.951
-0.266,0.598,-0.797,49.962
-0.262,0.598,-0.793,49.973
-0.25,0.598,-0.793,49.984
-0.25,0.59,-0.797,49.995
-0.25,0.598,-0.797,50.006
-0.254,0.594,-0.793,50.017
-0.254,0.594,-0.797,50.028
-0.25,0.594,-0.797,50.039
-0.25,0.59,-0.801,50.05
-0.25,0.59,-0.801,50.061
-0.262,0.594,-0.797,50.072
-0.27,0.598,-0.793,50.083
-0.27,0.598,-0.797,50.094
-0.273,0.598,-0.793,50.105
-0.27,0.594,-0.793,50.116
-0.262,0.59,-0.793,50.127
-0.262,0.594,-0.789,50.138
-0.266,0.594,-0.785,50.149
-0.262,0.594,-0.785,50.16
-0.258,0.598,-0.793,50.171
-0.258,0.598,-0.801,50.182
-0.254,0.598,-0.801,50.193
-0.254,0.598,-0.801,50.204
-0.254,0.594,-0.793,50.215
-0.25,0.594,-0.793,50.226
-0.246,0.59,-0.789,50.237
-0.254,0.586,-0.793,50.248
-0.262,0.59,-0.793,50.259
-0.266,0.586,-0.793,50.27
-0.262,0.594,-0.797,50.281
-0.266,0.598,-0.797,50.292
-0.266,0.598,-0.797,50.303
-0.27,0.586,-0.805,50.314
-0.262,0.582,-0.805,50.325
-0.25,0.586,-0.801,50.336
-0.246,0.594,-0.801,50.347
-0.242,0.594,-0.801,50.358
-0.242,0.594,-0.801,50.369
-0.25,0.598,-0.801,50.38
-0.25,0.594,-0.801,50.391
-0.258,0.598,-0.801,50.402
-0.262,0.602,-0.801,50.413
-0.266,0.594,-0.801,50.424
-0.27,0.594,-0.801,50.435
-0.27,0.586,-0.801,50.446
-0.266,0.586,-0.801,50.457
-0.262,0.59,-0.801,50.468
-0.254,0.59,-0.797,50.479
-0.258,0.586,-0.797,50.49
-0.25,0.602,-0.797,50.501
-0.254,0.59,-0.797,50.512
-0.25,0.598,-0.797,50.523
-0.246,0.598,-0.801,50.534
-0.246,0.598,-0.797,50.545
-0.25,0.594,-0.797,50.556
-0.258,0.594,-0.797,50.567
-0.258,0.59,-0.801,50.578
-0.254,0.59,-0.801,50.589
-0.254,0.59,-0.801,50.6
-0.238,0.594,-0.801,50.611
-0.242,0.598,-0.801,50.622
-0.242,0.594,-0.801,50.633
-0.25,0.59,-0.801,50.644
-0.25,0.59,-0.805,50.655
-0.246,0.59,-0.801,50.666
-0.25,0.59,-0.801,50.677
-0.25,0.59,-0.801,50.688
-0.254,0.594,-0.801,50.699
-0.254,0.594,-0.801,50.71
-0.254,0.59,-0.801,50.721
-0.254,0.594,-0.805,50.732
-0.25,0.59,-0.801,50.743
-0.242,0.586,-0.801,50.754
-0.242,0.586,-0.797,50.765
-0.25,0.59,-0.801,50.776
-0.258,0.586,-0.801,50.787
-0.262,0.594,-0.805,50.798
-0.258,0.586,-0.801,50.809
-0.25,0.59,-0.801,50.82
-0.246,0.598,-0.797,50.831
-0.242,0.594,-0.797,50.842
-0.238,0.59,-0.797,50.853
-0.238,0.586,-0.797,50.864
-0.254,0.594,-0.801,50.875
-0.254,0.586,-0.805,50.886
-0.254,0.59,-0.805,50.897
-0.258,0.594,-0.797,50.908
